timestamp,accX,accY,accZ,gyroX,gyroY,gyroZ
1730305474.0424502,0.4534296644568414,-3.780589585039396,-1.7799630287984427,0.03333333333333333,0.06666666666666667,-0.0
1730305474.059528,0.6194296644568418,-3.6592176060248103,-1.669970320633458,0.0,0.03333333333333333,-0.03333333333333333
1730305474.0876513,0.5633720368013666,-3.6002176060248106,-1.4231155475367854,0.0,0.0,-0.0
1730305474.1044202,0.5333720368013655,-3.6392176060248103,-1.4251015144220667,0.0,0.0,-0.0
1730305474.1161995,0.4453720368013663,-3.5178235952247072,-1.5078873901883454,0.0,0.0,-0.0
1730305474.145561,0.3473720368013655,-3.566823595224707,-1.4557117488146727,0.0,0.0,-0.03333333333333333
1730305474.1633997,0.3422373303784152,-3.4824567148182344,-1.5698731590079498,0.0,0.0,-0.06666666666666667
1730305474.1781228,0.32103594295023896,-3.3091664233300477,-1.6283035169042512,0.0,0.0,-0.06666666666666667
1730305474.2402256,0.3510359429502401,-3.211166423330048,-1.6262165668401871,-0.03333333333333333,0.0,-0.03333333333333333
1730305474.2402256,0.3807773787616977,-2.949002460564762,-1.6022082514580052,0.0,0.0,-0.0
1730305474.24823,0.3517773787616978,-2.881002460564762,-1.6045833075709068,0.0,0.0,-0.0
1730305474.2690918,0.2637773787616968,-2.743002460564762,-1.495037853234546,-0.03333333333333333,0.0,-0.0
1730305474.281216,0.1794702456451951,-2.4320148324557285,-1.3446628448175866,0.0,0.0,-0.0
1730305474.3001323,0.1404702456451954,-2.2562537958327407,-1.3651832085593314,0.0,0.0,-0.0
1730305474.32453,0.00012225239863106196,-2.1387698431133155,-1.3354127671845362,0.0,-0.03333333333333333,-0.0
1730305474.3565168,-0.09725979356276149,-2.088613686922219,-1.2805386465553374,0.0,-0.03333333333333333,-0.03333333333333333
1730305474.3585398,-0.20525979356276203,-2.1276136869222193,-1.269592335153086,0.0,0.0,-0.03333333333333333
1730305474.389154,-0.21525979356276181,-2.068613686922219,-1.3086930709020757,0.0,0.0,-0.0
1730305474.4052548,-0.1862597935627619,-2.0596136869222192,-1.2865134720190305,0.03333333333333333,0.0,-0.0
1730305474.4186578,-0.12725979356276262,-2.1476136869222193,-1.4614972231422332,0.0,0.0,-0.0
1730305474.449107,-0.16625979356276233,-1.9898362446439046,-1.3455902574867808,0.0,0.0,-0.0
1730305474.4642913,-0.16366998828002366,-1.8918362446439045,-1.185162432193283,0.0,0.0,-0.0
1730305474.5060303,-0.05566998828002312,-1.8438362446439045,-1.2767134668862363,0.0,0.03333333333333333,0.03333333333333333
1730305474.5060303,0.08233001171997678,-1.7948362446439046,-1.2876536128535565,0.0,0.03333333333333333,0.03333333333333333
1730305474.524071,0.1368966669511238,-1.7134886229125867,-1.3427561850820942,0.0,0.03333333333333333,-0.03333333333333333
1730305474.5546172,0.126896666951124,-1.8114886229125868,-1.3235587005226475,0.03333333333333333,0.03333333333333333,-0.06666666666666667
1730305474.569014,0.14644426405762978,-1.7206221020446648,-1.35912174577591,0.03333333333333333,0.03333333333333333,-0.03333333333333333
1730305474.5793095,0.11644426405763042,-1.6102881204182422,-1.400705681472674,0.03333333333333333,0.0,-0.03333333333333333
1730305474.6066165,0.020975986942669778,-1.4895382588044968,-1.3869010739309449,0.03333333333333333,0.0,-0.03333333333333333
1730305474.643715,0.04097598694267113,-1.5195382588044968,-1.3277623531027842,0.03333333333333333,0.03333333333333333,-0.0
1730305474.643715,0.03097598694267134,-1.3394242246556807,-1.4836197365117412,0.0,0.0,-0.0
1730305474.6581435,-0.03250588948419875,-1.0319978363545266,-1.468365758854058,0.0,0.03333333333333333,-0.0
1730305474.707353,-0.10050588948419836,-0.9919978363545267,-1.3954400094307877,0.0,0.03333333333333333,-0.0
1730305474.7125375,-0.08150588948419824,-1.0019978363545265,-1.237946108501753,0.03333333333333333,0.03333333333333333,-0.0
1730305474.7209196,-0.08150588948419824,-1.1299978363545267,-1.2958217013714588,0.03333333333333333,0.03333333333333333,-0.03333333333333333
1730305474.7480695,0.004999999999999005,-1.0173110074298692,-1.289908036313498,0.03333333333333333,0.06666666666666667,-0.0
1730305474.7816477,0.05400000000000027,-0.9883110074298693,-1.3066632035922972,0.0,0.06666666666666667,-0.0
1730305474.7966304,0.03500000000000014,-0.9393110074298693,-1.365691329666712,0.0,0.06666666666666667,-0.0
1730305474.8146982,0.004999999999999005,-0.7094157307432791,-1.3877735469091965,0.0,0.06666666666666667,-0.0
1730305474.8266492,-0.012505889484199173,-0.690415730743279,-1.4668753047458756,0.0,0.06666666666666667,-0.03333333333333333
1730305474.8393588,-0.02250588948419896,-0.4693640626515345,-1.5852813081303132,0.0,0.06666666666666667,-0.03333333333333333
1730305474.8908443,0.065494110515802,-0.4303640626515345,-1.4612071721488742,0.0,0.06666666666666667,-0.0
1730305474.906524,0.10449411051580171,-0.4503640626515345,-1.5375886295480008,0.0,0.06666666666666667,-0.0
1730305474.9126165,0.03097598694267134,-0.4403640626515345,-1.5038458718005177,0.0,0.03333333333333333,-0.0
1730305474.9308848,-0.02802401305732971,-0.4113640626515345,-1.3527182878800692,0.0,0.03333333333333333,-0.0
1730305474.9597168,-0.10602401305732911,-0.21020810714975127,-1.4563262251790106,0.0,0.03333333333333333,-0.0
1730305474.9621062,-0.10602401305732911,-0.2692081071497513,-1.436263054309666,0.03333333333333333,0.03333333333333333,-0.03333333333333333
1730305474.9899194,0.020975986942669778,-0.3672081071497513,-1.504493205638366,0.0,0.06666666666666667,-0.03333333333333333
1730305475.0052016,0.050975986942670914,-0.32820810714975124,-1.6194461566516778,0.0,0.06666666666666667,-0.0
1730305475.0196338,0.1389759869426701,-0.29820810714975127,-1.6697074188363894,0.0,0.06666666666666667,-0.0
1730305475.0566776,0.21697598694267128,-0.2592081071497513,-1.779451442133856,0.0,0.06666666666666667,-0.0
1730305475.0955057,0.16644426405762935,-0.16220810714975126,-1.6503555399621714,0.0,0.03333333333333333,-0.0
1730305475.0955057,0.1754442640576297,-0.12320810714975126,-1.6298773374193907,0.03333333333333333,0.03333333333333333,-0.0
1730305475.1015284,0.24444426405763053,-0.19120810714975126,-1.6617504633249376,0.03333333333333333,0.03333333333333333,-0.0
1730305475.1393156,0.22444426405763096,-0.3082081071497513,-1.7223468499301986,0.06666666666666667,0.0,-0.0
1730305475.1393156,0.048444264057630804,-0.41620810714975126,-1.7173990838550313,0.06666666666666667,0.0,-0.0
1730305475.185891,-0.03055573594236982,-0.5242081071497513,-1.7438928773710523,0.06666666666666667,0.0,-0.0
1730305475.1923482,-0.06955573594236952,-0.6122081071497513,-1.7470363132102877,0.03333333333333333,0.0,-0.03333333333333333
1730305475.1941023,-0.0005557359423704611,-0.8572081071497513,-1.719824461870728,0.03333333333333333,0.0,-0.03333333333333333
1730305475.2272246,0.0874442640576305,-0.824,-1.7113868590728156,0.0,0.03333333333333333,-0.0
1730305475.246571,0.24444426405763053,-0.922,-1.793717791173632,0.0,0.0,-0.0
1730305475.2624342,0.23444426405763075,-0.892,-1.7948184459292307,-0.06666666666666667,0.0,0.03333333333333333
1730305475.3065543,0.1754442640576297,-0.794,-1.8203757561441598,-0.1,0.0,0.03333333333333333
1730305475.3122756,0.24444426405763053,-0.677,-1.815037407131547,-0.1,0.0,-0.0
1730305475.323354,0.28344426405763024,-0.706,-1.8486625506085739,-0.1,0.0,-0.0
1730305475.3458226,0.2544442640576303,-0.745,-1.7548874465155917,-0.1,0.0,-0.0
1730305475.3630853,0.19544426405763105,-0.677,-1.7800150816584617,-0.16666666666666666,0.0,-0.0
1730305475.3821979,0.15644426405762957,-0.598,-1.8232924937597272,-0.16666666666666666,0.0,-0.03333333333333333
1730305475.4388413,0.09744426405763029,-0.49,-1.88648497072647,-0.2,0.0,-0.03333333333333333
1730305475.4581418,0.028444264057629454,-0.353,-1.7585651555235848,-0.2,0.0,-0.03333333333333333
1730305475.4640791,-0.0005557359423704611,-0.324,-1.7612250964119092,-0.2,0.0,-0.03333333333333333
1730305475.4695287,-0.03055573594236982,-0.382,-1.6840282442114676,-0.16666666666666666,0.0,-0.0
1730305475.4862173,-0.06955573594236952,-0.373,-1.669433894064036,-0.2,0.0,0.03333333333333333
1730305475.499136,-0.059555735942369736,-0.265,-1.5710401967129959,-0.2,0.0,0.06666666666666667
1730305475.5452337,-0.059555735942369736,-0.216,-1.589114180777937,-0.2,0.0,0.03333333333333333
1730305475.5462694,-0.020555735942370035,-0.137,-1.5860754328642996,-0.23333333333333334,0.0,-0.0
1730305475.577363,0.048444264057630804,-0.127,-1.6600149719819686,-0.23333333333333334,0.0,-0.06666666666666667
1730305475.5906568,0.07744426405763072,-0.196,-1.5980144587179614,-0.2,0.0,-0.0
1730305475.607979,-0.03055573594236982,-0.284,-1.626506163760572,-0.2,0.0,-0.0
1730305475.6397097,-0.13755573594236914,-0.196,-1.4390479803458653,-0.23333333333333334,0.0,-0.0
1730305475.6575732,-0.07955573594236931,-0.118,-1.4148294431670547,-0.26666666666666666,0.0,-0.0
1730305475.680773,0.06744426405763093,-0.157,-1.4817382920162934,-0.2,0.0,0.03333333333333333
1730305475.680773,0.06744426405763093,-0.235,-1.5411875514475428,-0.2,0.0,0.03333333333333333
1730305475.708987,-0.059555735942369736,-0.314,-1.3730781589752867,-0.2,0.0,0.03333333333333333
1730305475.7262797,-0.20655573594236998,-0.373,-1.3834081649610073,-0.2,0.0,-0.0
1730305475.739331,-0.16755573594237028,-0.382,-1.3222638042237032,-0.26666666666666666,0.0,-0.06666666666666667
1730305475.780033,-0.020555735942370035,-0.382,-1.4300325997941412,-0.26666666666666666,0.03333333333333333,-0.06666666666666667
1730305475.7967331,0.07744426405763072,-0.412,-1.5002926052604861,-0.26666666666666666,0.0,-0.0
1730305475.8061378,0.0874442640576305,-0.382,-1.4421115290985207,-0.26666666666666666,0.0,0.06666666666666667
1730305475.838537,0.06744426405763093,-0.226,-1.38430593983903,-0.3,0.0,0.1
1730305475.852421,-0.0005557359423704611,-0.078,-1.5068270536158237,-0.3,0.0,0.1
1730305475.8826456,0.009444264057629326,0.009,-1.4483211880347837,-0.3,0.03333333333333333,0.06666666666666667
1730305475.905029,0.028444264057629454,0.107,-1.3672576577010398,-0.3,0.03333333333333333,0.03333333333333333
1730305475.905029,0.06744426405763093,0.156,-1.4042695426930596,-0.3,0.03333333333333333,-0.0
1730305475.9168549,0.0874442640576305,0.107,-1.4029078974105107,-0.26666666666666666,0.03333333333333333,-0.0
1730305475.9478784,0.09744426405763029,0.058,-1.4220736383402706,-0.23333333333333334,0.0,-0.0
1730305475.9634979,0.07744426405763072,0.068,-1.2665560486213958,-0.23333333333333334,0.0,0.03333333333333333
1730305475.979577,0.11644426405763042,0.0,-1.420737491463695,-0.23333333333333334,0.0,0.03333333333333333
1730305476.0216837,0.07744426405763072,-0.069,-1.4433494984439479,-0.23333333333333334,0.0,0.03333333333333333
1730305476.0286968,-0.17755573594237006,-0.01,-1.303346220772903,-0.23333333333333334,0.0,0.1
1730305476.041354,-0.29455573594236917,0.058,-1.1736234022183534,-0.23333333333333334,0.0,0.1
1730305476.0704715,-0.21655573594236976,-0.049,-1.3463386246643414,-0.2,0.0,0.1
1730305476.0844073,-0.20655573594236998,-0.314,-1.6995591252279,-0.13333333333333333,0.0,0.16666666666666666
1730305476.1157968,-0.30455573594236895,-0.441,-1.8068405752272167,-0.2,0.0,0.1
1730305476.1310718,-0.43255573594236907,-0.24020810714975127,-1.6818648009383208,-0.3333333333333333,0.03333333333333333,-0.0
1730305476.145468,-0.1575557359423705,-0.15220810714975128,-1.677628011086031,-0.3333333333333333,0.1,-0.03333333333333333
1730305476.1602478,0.1389759869426701,-0.14320810714975127,-1.651985282021084,-0.3,0.1,-0.03333333333333333
1730305476.190799,0.3939759869426709,-0.12320810714975126,-1.573056477945261,-0.26666666666666666,0.1,0.03333333333333333
1730305476.2055702,0.4704442640576296,-0.19120810714975126,-1.7021954403922872,-0.23333333333333334,0.06666666666666667,0.1
1730305476.2200973,0.27344426405763045,-0.09420810714975127,-1.602417356006455,-0.3,0.03333333333333333,0.1
1730305476.2561903,0.19544426405763105,0.20079189285024873,-1.4916593854070617,-0.36666666666666664,0.03333333333333333,0.03333333333333333
1730305476.2675152,0.20544426405763083,0.33779189285024874,-1.4904860197675407,-0.3333333333333333,0.03333333333333333,-0.0
1730305476.2791922,0.23444426405763075,0.22979189285024876,-1.5655035698187534,-0.26666666666666666,0.03333333333333333,-0.0
1730305476.3056397,0.2644442640576301,0.09279189285024875,-1.6225231521499128,-0.26666666666666666,0.03333333333333333,-0.03333333333333333
1730305476.3389997,0.24444426405763053,0.08279189285024874,-1.5847811739607653,-0.26666666666666666,0.0,-0.0
1730305476.3557494,0.22444426405763096,0.004791892850248725,-1.7419721515058213,-0.26666666666666666,0.0,-0.0
1730305476.3717103,0.1754442640576297,0.004791892850248725,-1.7067152456068815,-0.26666666666666666,0.0,0.03333333333333333
1730305476.3857741,0.1754442640576297,0.03379189285024872,-1.6672111129415343,-0.26666666666666666,0.0,-0.0
1730305476.4158852,0.1754442640576297,0.05379189285024874,-1.649416947937148,-0.26666666666666666,0.0,-0.0
1730305476.4303296,0.0874442640576305,0.03379189285024872,-1.5773743362012649,-0.26666666666666666,0.0,-0.0
1730305476.4470522,-0.010555735942370248,0.004791892850248725,-1.625065405415181,-0.23333333333333334,0.0,-0.0
1730305476.4629016,-0.08855573594236965,-0.015208107149751265,-1.5735651875846888,-0.23333333333333334,0.0,-0.0
1730305476.505995,-0.10855573594236922,-0.05420810714975126,-1.5351706862353658,-0.23333333333333334,0.0,-0.0
1730305476.5124154,-0.059555735942369736,-0.035208107149751255,-1.6491440926361733,-0.26666666666666666,0.03333333333333333,-0.03333333333333333
1730305476.520683,0.10744426405763008,-0.05420810714975126,-1.7323357406682736,-0.26666666666666666,0.0,-0.03333333333333333
1730305476.5585868,0.09744426405763029,-0.06420810714975127,-1.7332082511272962,-0.23333333333333334,0.0,-0.0
1730305476.5711696,-0.0005557359423704611,0.004791892850248725,-1.5067300136209205,-0.23333333333333334,0.0,0.1
1730305476.5825467,-0.010555735942370248,-0.11320810714975127,-1.5673989979093963,-0.23333333333333334,0.0,-0.0
1730305476.6085837,0.009444264057629326,-0.18120810714975127,-1.4861699998435145,-0.23333333333333334,0.0,-0.03333333333333333
1730305476.6268072,0.018444264057629667,-0.2692081071497513,-1.485456982428439,-0.23333333333333334,0.0,-0.03333333333333333
1730305476.6432292,0.07744426405763072,-0.3082081071497513,-1.61792930672852,-0.26666666666666666,0.03333333333333333,-0.0
1730305476.6710129,0.13644426405763,-0.29820810714975127,-1.5934134691120825,-0.26666666666666666,0.0,-0.0
1730305476.6859205,0.10744426405763008,-0.22020810714975125,-1.538314095231728,-0.3,0.0,0.03333333333333333
1730305476.7024562,0.06744426405763093,-0.15220810714975128,-1.5414024951191,-0.3,0.03333333333333333,-0.0
1730305476.7250092,0.10744426405763008,-0.11320810714975127,-1.478855497851272,-0.3,0.03333333333333333,-0.0
1730305476.7579021,0.1754442640576297,-0.13320810714975126,-1.5331372391628197,-0.3,0.03333333333333333,-0.03333333333333333
1730305476.7579021,0.23444426405763075,0.028,-1.4696124626842382,-0.3,0.0,-0.03333333333333333
1730305476.8062832,0.21544426405763062,0.068,-1.5872624144542535,-0.3,0.0,-0.0
1730305476.8126194,0.15644426405762957,0.136,-1.57206520457057,-0.3,0.0,-0.0
1730305476.8243892,0.16644426405762935,0.097,-1.4942690675773256,-0.3,0.0,-0.03333333333333333
1730305476.8452938,0.18544426405762948,-0.01,-1.5896219461468282,-0.26666666666666666,0.0,-0.0
1730305476.862752,0.05844426405763059,-0.02,-1.482499693973101,-0.3,0.0,-0.0
1730305476.8810496,0.10744426405763008,0.058,-1.3618699826262872,-0.3333333333333333,0.0,-0.0
1730305476.9117901,0.1264442640576302,0.038,-1.4002141945929147,-0.26666666666666666,0.0,0.03333333333333333
1730305476.9257545,0.03844426405763102,0.038,-1.4064029666718487,-0.26666666666666666,0.0,0.03333333333333333
1730305476.9431381,-0.12855573594237057,0.136,-1.2015573014921535,-0.3,0.0,0.03333333333333333
1730305476.9709444,-0.22655573594236955,0.176,-1.248056675963924,-0.3,0.0,-0.0
1730305477.0079002,-0.17755573594237006,0.097,-1.2831828067889597,-0.3,0.0,-0.03333333333333333
1730305477.0209403,-0.07955573594236931,0.009,-1.2967460024313238,-0.3,0.0,-0.06666666666666667
1730305477.0260613,-0.020555735942370035,-0.01,-1.3707007609596218,-0.3,0.0,-0.0
1730305477.045884,-0.13755573594236914,0.126,-1.3206677349057232,-0.3333333333333333,0.0,0.06666666666666667
1730305477.062166,-0.25555573594236947,0.303,-1.4477357854162733,-0.3333333333333333,0.03333333333333333,0.03333333333333333
1730305477.0927207,-0.04955573594236995,0.323,-1.4902296497159209,-0.3333333333333333,0.06666666666666667,-0.0
1730305477.1209688,0.1264442640576302,0.185,-1.4773420927227963,-0.3,0.03333333333333333,-0.0
1730305477.128639,0.16644426405762935,-0.08420810714975127,-1.35786648409907,-0.26666666666666666,0.0,0.06666666666666667
1730305477.1507545,0.23444426405763075,-0.08420810714975127,-1.1225768021601246,-0.3,0.0,0.13333333333333333
1730305477.1654725,0.16644426405762935,-0.14320810714975127,-1.0669652805391965,-0.26666666666666666,0.0,0.16666666666666666
1730305477.1818535,0.0874442640576305,-0.22020810714975125,-1.0333993493704976,-0.26666666666666666,0.0,0.1
1730305477.2084892,0.03844426405763102,-0.24920810714975128,-1.1136705188046245,-0.3,0.0,0.03333333333333333
1730305477.2258456,0.10744426405763008,-0.22020810714975125,-1.246800701760181,-0.3333333333333333,0.0,-0.0
1730305477.2417092,0.15644426405762957,-0.20020810714975126,-1.3209637739488294,-0.3333333333333333,0.0,-0.0
1730305477.2725053,0.10744426405763008,-0.12320810714975126,-1.4590366211733172,-0.36666666666666664,0.0,-0.0
1730305477.3237493,0.0874442640576305,-0.05420810714975126,-1.5774873387214112,-0.3333333333333333,0.0,-0.0
1730305477.3352787,0.06744426405763093,-0.0052081071497512565,-1.6583854150170267,-0.3333333333333333,0.0,-0.0
1730305477.3423007,0.09744426405763029,0.05379189285024874,-1.6736311308379004,-0.36666666666666664,0.0,-0.03333333333333333
1730305477.3469896,0.18544426405762948,-0.12320810714975126,-1.802586890340407,-0.3,0.0,0.03333333333333333
1730305477.3630843,0.0874442640576305,-0.28920810714975126,-1.5001340287839886,-0.26666666666666666,-0.03333333333333333,0.2
1730305477.3922102,-0.07955573594236931,-0.14320810714975127,-1.2767134668862363,-0.3333333333333333,0.0,0.26666666666666666
1730305477.4062185,-0.1160240130573289,-0.1083640626515345,-1.1620700787725453,-0.36666666666666664,0.0,0.13333333333333333
1730305477.4208682,0.020975986942669778,-0.1083640626515345,-1.3093588796966742,-0.36666666666666664,0.0,-0.0
1730305477.4677982,0.07997598694267083,-0.11736406265153451,-1.363069818147928,-0.4,0.0,-0.03333333333333333
1730305477.4732287,0.15449411051580064,-0.1083640626515345,-1.3774807257619612,-0.36666666666666664,0.0,-0.0
1730305477.481839,0.13449411051580107,-0.12736406265153452,-1.4184555219197936,-0.36666666666666664,0.0,-0.0
1730305477.5240793,-0.04702401305732984,-0.019364062651534508,-1.2157874131217112,-0.4,0.0,-0.0
1730305477.5240793,0.06997598694267104,-0.0683640626515345,-1.306065256067591,-0.36666666666666664,0.0,-0.0
1730305477.5540624,0.18797598694267137,-0.15736406265153452,-1.3953245516667585,-0.36666666666666664,0.0,-0.0
1730305477.5850883,0.11897598694267053,-0.16636406265153453,-1.3426521549525776,-0.4,0.0,-0.0
1730305477.5850883,0.08997598694267062,-0.1083640626515345,-1.2651263327864015,-0.4,0.0,-0.0
1730305477.5970585,0.059975986942671256,-0.15736406265153452,-1.2670970334327196,-0.36666666666666664,0.0,-0.0
1730305477.6426165,0.03097598694267134,-0.18636406265153452,-1.2311471586472882,-0.4,0.0,-0.03333333333333333
1730305477.6509855,0.0019759869426696497,-0.19636406265153453,-1.2708553302298866,-0.4,0.0,-0.03333333333333333
1730305477.67618,0.0019759869426696497,-0.19636406265153453,-1.2329654461447155,-0.4,0.0,-0.03333333333333333
1730305477.6930747,0.059975986942671256,0.03379189285024872,-1.3644672258108828,-0.43333333333333335,0.0,-0.03333333333333333
1730305477.7042632,0.19797598694267116,0.14179189285024874,-1.317454547293146,-0.43333333333333335,0.0,-0.03333333333333333
1730305477.7205617,0.21697598694267128,0.14179189285024874,-1.2195741923656596,-0.4,0.0,-0.0
1730305477.7461503,0.29597598694267013,0.12179189285024872,-1.3308500864444284,-0.4,0.0,-0.0
1730305477.7903452,0.23697598694267086,0.07279189285024873,-1.0824400107537993,-0.36666666666666664,0.0,0.06666666666666667
1730305477.801191,0.12897598694267032,-0.0052081071497512565,-1.108146218116894,-0.36666666666666664,-0.03333333333333333,0.06666666666666667
1730305477.801191,0.04097598694267113,0.004791892850248725,-1.093121003590277,-0.36666666666666664,0.0,0.03333333333333333
1730305477.841857,-0.057024013057329626,0.16079189285024875,-1.2943777687047873,-0.4,0.0,-0.0
1730305477.8579648,-0.02802401305732971,0.07863593734846547,-1.2922396644283336,-0.4,0.0,-0.0
1730305477.886527,0.050975986942670914,0.0486359373484655,-1.2493899144068656,-0.36666666666666664,0.0,-0.03333333333333333
1730305477.9168935,0.1389759869426701,-0.029364062651534517,-1.3410935996129636,-0.36666666666666664,0.0,-0.0
1730305477.920875,0.1779759869426698,-0.019364062651534508,-1.3384884519028493,-0.36666666666666664,0.0,-0.0
1730305477.9250238,0.11897598694267053,-0.0103640626515345,-1.245281623201525,-0.36666666666666664,-0.03333333333333333,-0.0
1730305477.9545841,0.050975986942670914,-0.0683640626515345,-1.2297465969146804,-0.3333333333333333,-0.03333333333333333,-0.0
1730305477.9667082,-0.04702401305732984,-0.2063640626515345,-1.0600420815596676,-0.3333333333333333,-0.03333333333333333,-0.03333333333333333
1730305477.9763308,-0.0770240130573292,-0.08420810714975127,-0.9815309383433745,-0.3333333333333333,0.0,-0.0
1730305478.022602,0.0999759869426704,-0.17120810714975127,-0.9926377773026314,-0.36666666666666664,0.0,-0.0
1730305478.027028,0.3059759869426699,-0.24020810714975127,-1.118264856915085,-0.36666666666666664,0.0,-0.0
1730305478.0307195,0.3549759869426712,-0.15220810714975128,-1.2117068571012548,-0.4,0.0,0.03333333333333333
1730305478.0579982,0.412975986942671,-0.015208107149751265,-1.3235799296822068,-0.4,0.0,0.06666666666666667
1730305478.082589,0.20797598694267094,-0.0683640626515345,-1.0464118253986197,-0.4,-0.03333333333333333,0.03333333333333333
1730305478.0975761,0.03097598694267134,-0.00036406265153449135,-0.7425655960990944,-0.4,-0.03333333333333333,-0.0
1730305478.1228507,0.06997598694267104,-0.15736406265153452,-1.0139418688265194,-0.3333333333333333,-0.03333333333333333,-0.0
1730305478.194127,0.020975986942669778,-0.23536406265153453,-0.8409470136189223,-0.36666666666666664,-0.03333333333333333,-0.03333333333333333
1730305478.2022161,-0.008024013057330137,-0.06420810714975127,-0.9401029237223555,-0.4,-0.03333333333333333,-0.03333333333333333
1730305478.2066553,0.0019759869426696497,-0.08420810714975127,-1.057426656059456,-0.4,-0.03333333333333333,-0.03333333333333333
1730305478.2269495,-0.10602401305732911,0.05379189285024874,-1.0029607232245776,-0.4,-0.03333333333333333,0.03333333333333333
1730305478.2269495,-0.13050588948419772,0.17079189285024876,-0.9837300343881401,-0.4,0.0,0.03333333333333333
1730305478.2434762,-0.08150588948419824,0.14179189285024874,-1.0013376993749519,-0.36666666666666664,0.0,-0.0
1730305478.303973,-0.12050588948419794,0.08279189285024874,-1.0034420505434039,-0.36666666666666664,0.0,-0.0
1730305478.303973,-0.11050588948419815,0.15179189285024874,-0.8843781811322573,-0.4,0.0,-0.0
1730305478.303973,-0.051505889484198875,0.20079189285024873,-0.803546180041355,-0.36666666666666664,0.0,-0.0
1730305478.3152454,-0.042505889484198534,0.18079189285024871,-0.7451632571362174,-0.36666666666666664,0.0,-0.0
1730305478.3493028,-0.03250588948419875,0.21979189285024875,-0.7827337155732421,-0.36666666666666664,0.0,-0.0
1730305478.3796825,-0.03250588948419875,0.2397918928502487,-0.7246902617080802,-0.3333333333333333,0.0,-0.0
1730305478.3845422,-0.08150588948419824,0.03863593734846549,-0.6082035188535404,-0.3333333333333333,0.0,-0.0
1730305478.3962822,-0.14950588948419785,-0.00036406265153449135,-0.6103930847542889,-0.3333333333333333,0.0,-0.0
1730305478.4544692,-0.1695058894841992,0.06863593734846546,-0.49202391926258626,-0.3333333333333333,0.0,0.03333333333333333
1730305478.4560642,-0.15950588948419941,0.1176359373484655,-0.6508337190341063,-0.3333333333333333,0.03333333333333333,0.03333333333333333
1730305478.4703958,-0.14950588948419785,0.25463593734846546,-0.5697541397122278,-0.3333333333333333,0.03333333333333333,0.03333333333333333
1730305478.485055,-0.13050588948419772,0.26463593734846547,-0.5892786276317268,-0.3333333333333333,0.03333333333333333,-0.0
1730305478.4996495,-0.12050588948419794,0.23563593734846544,-0.6673879389252262,-0.3,0.03333333333333333,-0.0
1730305478.5410614,-0.02250588948419896,0.25463593734846546,-0.6060347749445434,-0.3,0.06666666666666667,-0.0
1730305478.5410614,0.14449411051580086,0.20563593734846553,-0.8349547035937478,-0.26666666666666666,0.06666666666666667,0.03333333333333333
1730305478.5712957,0.15449411051580064,0.23563593734846544,-0.6977975692545305,-0.26666666666666666,0.03333333333333333,0.03333333333333333
1730305478.5791225,0.15449411051580064,0.2846359373484655,-0.6402457865241241,-0.26666666666666666,0.03333333333333333,0.06666666666666667
1730305478.6041942,0.2034941105158019,0.02458426925672097,-0.7535063713327443,-0.23333333333333334,0.03333333333333333,0.03333333333333333
1730305478.6208959,0.2524941105158014,-0.13241573074327906,-0.734212456756759,-0.2,0.03333333333333333,-0.0
1730305478.6351836,0.3104941105158012,-0.22041573074327908,-0.7322461436382335,-0.23333333333333334,0.0,0.03333333333333333
1730305478.6743498,0.2714941105158015,-0.21041573074327907,-0.6547863898462907,-0.23333333333333334,0.0,0.03333333333333333
1730305478.6743498,0.17349411051580077,-0.11241573074327904,-0.5429605367861483,-0.23333333333333334,0.0,0.06666666666666667
1730305478.695107,0.23249411051580182,-0.08341573074327907,-0.5413519732908301,-0.23333333333333334,0.0,0.03333333333333333
1730305478.7239013,0.22249411051580203,-0.13241573074327906,-0.6384928696984102,-0.23333333333333334,0.0,-0.0
1730305478.7412632,0.18349411051580233,-0.14141573074327907,-0.5605417795685095,-0.23333333333333334,0.0,-0.0
1730305478.7706044,0.13449411051580107,-0.18141573074327905,-0.6413342357607782,-0.23333333333333334,0.0,-0.0
1730305478.784411,0.04649411051580188,-0.14141573074327907,-0.5643914463958337,-0.23333333333333334,0.0,-0.0
1730305478.799443,0.14449411051580086,-0.08341573074327907,-0.7955507819737011,-0.26666666666666666,0.0,-0.0
1730305478.8406389,0.22249411051580203,-0.08341573074327907,-0.8892409873315967,-0.23333333333333334,0.0,-0.0
1730305478.8406389,0.18349411051580233,-0.08341573074327907,-0.7366343100915989,-0.23333333333333334,0.0,0.03333333333333333
1730305478.8588479,0.15449411051580064,0.005584269256720953,-0.6780945630248686,-0.23333333333333334,0.0,0.03333333333333333
1730305478.875057,0.13449411051580107,-0.09241573074327908,-0.6412266284643926,-0.2,-0.03333333333333333,-0.0
1730305478.9132497,0.10449411051580171,-0.20041573074327906,-0.6602029014393154,-0.2,-0.03333333333333333,-0.0
1730305478.9215822,0.15449411051580064,-0.19041573074327905,-0.7754976428072758,-0.23333333333333334,-0.03333333333333333,-0.0
1730305478.947289,0.23249411051580182,-0.22041573074327908,-0.6757964945398491,-0.23333333333333334,-0.03333333333333333,-0.0
1730305478.993431,0.26149411051580174,-0.31841573074327906,-0.7518280642322809,-0.2,-0.03333333333333333,0.06666666666666667
1730305478.993431,0.19349411051580212,-0.24941573074327905,-0.5801523753234729,-0.23333333333333334,-0.03333333333333333,0.06666666666666667
1730305479.0038323,0.22249411051580203,-0.15141573074327908,-0.5594751164927669,-0.26666666666666666,-0.03333333333333333,0.03333333333333333
1730305479.0275905,0.21249411051580225,-0.11241573074327904,-0.5794790503029923,-0.26666666666666666,-0.03333333333333333,-0.0
1730305479.042144,0.14449411051580086,-0.06341573074327905,-0.5615369895429101,-0.26666666666666666,-0.03333333333333333,-0.0
1730305479.0707393,0.1529999999999987,-0.09241573074327908,-0.4264603882739838,-0.26666666666666666,-0.03333333333333333,-0.03333333333333333
1730305479.0915856,0.1429999999999989,-0.2304157307432791,-0.5240104752438846,-0.26666666666666666,-0.03333333333333333,-0.06666666666666667
1730305479.109049,0.1429999999999989,-0.21041573074327907,-0.44660804690591926,-0.26666666666666666,-0.06666666666666667,-0.0
1730305479.131097,-0.034000000000000696,-0.11241573074327904,-0.21427550586819105,-0.3,-0.06666666666666667,-0.0
1730305479.1458845,-0.1120000000000001,-0.07341573074327906,-0.21511792434875313,-0.3,-0.06666666666666667,-0.03333333333333333
1730305479.1604977,-0.10200000000000031,-0.11241573074327904,-0.05626996608461722,-0.3,-0.06666666666666667,-0.03333333333333333
1730305479.1766498,-0.0730000000000004,-0.16141573074327908,-0.03812991379391642,-0.3,-0.03333333333333333,-0.03333333333333333
1730305479.20783,0.11299999999999955,0.02963593734846548,-0.17294559772617105,-0.3333333333333333,0.0,-0.0
1730305479.2225318,0.31899999999999906,0.07863593734846547,-0.3639892937797963,-0.3,0.0,-0.0
1730305479.2365391,0.4169999999999998,-0.024415730743279074,-0.3054510815981003,-0.3,-0.03333333333333333,0.06666666666666667
1730305479.2595346,0.49599999999999866,0.0735842692567209,-0.13262120458783178,-0.3,-0.03333333333333333,0.06666666666666667
1730305479.2920914,0.40700000000000003,-0.024415730743279074,-0.1508460348139949,-0.26666666666666666,-0.06666666666666667,-0.0
1730305479.3812888,0.26149411051580174,-0.17141573074327904,-0.055261237746207455,-0.26666666666666666,-0.1,-0.03333333333333333
1730305479.3920014,0.22249411051580203,-0.2884157307432791,0.0004455914371414432,-0.26666666666666666,-0.06666666666666667,-0.06666666666666667
1730305479.3955677,0.2424941105158016,-0.4164157307432791,-0.03754352678032535,-0.3333333333333333,-0.06666666666666667,-0.1
1730305479.4026375,0.2034941105158019,-0.1083640626515345,0.0012071572098070055,-0.36666666666666664,-0.06666666666666667,-0.06666666666666667
1730305479.4082322,0.2524941105158014,-0.059364062651534544,0.003227184950071113,-0.36666666666666664,-0.06666666666666667,-0.03333333333333333
1730305479.4135056,0.2424941105158016,-0.00036406265153449135,0.002903907101905967,-0.36666666666666664,-0.06666666666666667,-0.03333333333333333
1730305479.4135056,0.2814941105158013,0.1176359373484655,0.003952227589446994,-0.4,-0.06666666666666667,-0.03333333333333333
1730305479.4546134,0.320494110515801,0.21563593734846553,0.005192903320108688,-0.4,-0.06666666666666667,-0.03333333333333333
1730305479.467024,0.3549759869426712,0.22563593734846543,0.0027992561295146767,-0.36666666666666664,-0.06666666666666667,-0.0
1730305479.476792,0.33497598694266983,0.37263593734846545,0.005488873190952509,-0.36666666666666664,-0.1,0.03333333333333333
1730305479.5182703,0.36397598694266975,0.48063593734846544,0.009072983427280579,-0.36666666666666664,-0.1,-0.0
1730305479.5240233,0.4819759869426701,0.4506359373484655,0.011596034404609545,-0.36666666666666664,-0.1,-0.0
1730305479.534886,0.5899759869426706,0.4316359373484655,0.010963226144677984,-0.36666666666666664,-0.1,-0.03333333333333333
1730305479.556789,0.5309759869426713,0.46063593734846553,0.015885062649334813,-0.3,-0.16666666666666666,-0.0
1730305479.577877,0.3939759869426709,0.49063593734846545,0.013517320783054954,-0.3,-0.16666666666666666,0.03333333333333333
1730305479.5936313,0.2644442640576301,0.5196359373484655,0.009668586598242546,-0.26666666666666666,-0.2,0.03333333333333333
1730305479.6545682,0.22444426405763096,0.3285842692567209,0.010698131190907012,-0.26666666666666666,-0.2,-0.0
1730305479.6545682,0.15644426405762957,0.279584269256721,0.010630703308855516,-0.26666666666666666,-0.2,-0.0
1730305479.661776,0.028444264057629454,0.3195842692567209,0.004463758593533207,-0.26666666666666666,-0.2,-0.0
1730305479.6859431,-0.12710333304887556,0.4365842692567209,-0.005804640884729539,-0.3,-0.2,-0.0
1730305479.6997013,-0.13710333304887712,0.407584269256721,-0.006913369441003181,-0.23333333333333334,-0.16666666666666666,-0.0
1730305479.7140741,-0.02910333304887658,0.279584269256721,0.0003882547056854868,-0.23333333333333334,-0.16666666666666666,-0.0
1730305479.742604,0.052330011719975644,0.279584269256721,0.00435384275592654,-0.23333333333333334,-0.16666666666666666,-0.0
1730305479.7574058,-0.006669988280023631,0.4265842692567209,0.0014769060297276093,-0.26666666666666666,-0.16666666666666666,0.1
1730305479.7875652,-0.006669988280023631,0.4126889925701307,0.0032563363621846975,-0.23333333333333334,-0.16666666666666666,0.1
1730305479.8059864,0.08233001171997678,0.36368899257013076,0.009820521673619909,-0.2,-0.13333333333333333,0.03333333333333333
1730305479.820485,0.08233001171997678,0.1776889925701307,0.009702258770592054,-0.16666666666666666,-0.16666666666666666,-0.0
1730305479.83442,-0.058259793562761786,-0.11099783635452665,-0.0031462705349134534,-0.16666666666666666,-0.16666666666666666,0.03333333333333333
1730305479.8618026,-0.019259793562762084,0.03600216364547337,0.0035660587636623386,-0.23333333333333334,-0.16666666666666666,0.03333333333333333
1730305479.8793175,0.04974020643723698,0.29100216364547327,0.011847945753850286,-0.2,-0.13333333333333333,0.03333333333333333
1730305479.891546,0.2847402064372382,0.7230021636454734,0.038088145636094084,-0.23333333333333334,-0.13333333333333333,-0.03333333333333333
1730305479.940747,0.5001222523986311,0.8800021636454735,0.048554083225477496,-0.16666666666666666,-0.13333333333333333,-0.16666666666666666
1730305479.940747,0.6371222523986315,0.6440021636454735,0.05590743677249599,-0.06666666666666667,-0.2,-0.23333333333333334
1730305479.9568808,0.6371222523986315,0.23300216364547344,0.05413358120943379,0.0,-0.23333333333333334,-0.23333333333333334
1730305479.9857163,0.5424702456451946,-0.051997836354526594,0.04748370013126446,0.0,-0.26666666666666666,-0.06666666666666667
1730305480.0006413,0.3754702456451948,-0.12099783635452666,0.040929011060204745,0.0,-0.26666666666666666,-0.0
1730305480.0156884,0.12577737876169692,-0.2514242246556806,0.016539401582489344,-0.03333333333333333,-0.26666666666666666,0.03333333333333333
1730305480.0411038,0.14577737876169827,-0.2614242246556806,0.019677862787065514,-0.03333333333333333,-0.23333333333333334,0.03333333333333333
1730305480.0580041,0.29203594295023905,-0.18342422465568065,0.035376330704269154,-0.06666666666666667,-0.2,-0.0
1730305480.071151,0.4580359429502394,-0.1434242246556806,0.05659026892827357,-0.06666666666666667,-0.23333333333333334,-0.03333333333333333
1730305480.1038198,0.4880359429502388,-0.24142422465568059,0.05808398710599283,-0.03333333333333333,-0.26666666666666666,0.03333333333333333
1730305480.1202865,0.352237330378415,-0.19242422465568065,0.04218573558291938,-0.03333333333333333,-0.26666666666666666,0.1
1730305480.1348138,0.24423733037841622,-0.00642422465568071,0.034684838810339125,-0.06666666666666667,-0.26666666666666666,0.06666666666666667
1730305480.1593568,0.2252373303784161,-0.1665382588044968,0.034267002653473266,0.0,-0.26666666666666666,0.03333333333333333
1730305480.1794276,0.14623733037841546,-0.23553825880449675,0.02403746603493806,0.0,-0.26666666666666666,-0.0
1730305480.2272463,0.17037203680136592,-0.2845382588044967,0.02584103430843654,0.0,-0.26666666666666666,-0.06666666666666667
1730305480.231291,0.09237203680136652,-0.3235382588044967,0.013964076762454924,0.0,-0.26666666666666666,-0.06666666666666667
1730305480.256658,0.03337203680136547,-0.18342422465568065,0.0071612948298211965,0.0,-0.26666666666666666,-0.03333333333333333
1730305480.2608407,-0.06657033554315817,-0.1244242246556806,-0.014241967475069117,0.0,-0.23333333333333334,-0.03333333333333333
1730305480.2992291,-0.16457033554315892,-0.00642422465568071,-0.0293099278421165,0.0,-0.23333333333333334,-0.1
1730305480.3053248,-0.19457033554315828,-0.00642422465568071,-0.03132197750535237,0.0,-0.23333333333333334,-0.16666666666666666
1730305480.3155549,-0.18360107476752496,-0.29142422465568063,-0.04353297884213214,0.06666666666666667,-0.23333333333333334,-0.16666666666666666
1730305480.3463795,-0.3016010747675253,-0.5854242246556807,-0.07498062205405231,0.06666666666666667,-0.2,-0.16666666666666666
1730305480.3612497,-0.05660107476752607,-0.4639978363545266,-0.02382423314072435,0.0,-0.13333333333333333,-0.2
1730305480.376561,0.22839892523247407,-0.3949978363545266,0.026154405213399956,0.0,-0.13333333333333333,-0.1
1730305480.4070244,0.24126764410424073,-0.1989978363545266,0.031011552136270826,0.0,-0.16666666666666666,0.06666666666666667
1730305480.4193637,0.3392676441042397,0.027002163645473365,0.05465021354638244,0.0,-0.16666666666666666,0.13333333333333333
1730305480.4349194,0.43726764410424046,-0.00642422465568071,0.08909208318866968,0.03333333333333333,-0.16666666666666666,0.06666666666666667
1730305480.4652154,0.4772676441042396,-0.01642422465568072,0.10606824397623393,0.03333333333333333,-0.16666666666666666,-0.0
1730305480.4801207,0.43402276284509256,-0.17342422465568064,0.089195864356018,0.03333333333333333,-0.2,-0.23333333333333334
1730305480.4965074,0.49302276284509183,-0.3894242246556806,0.10227925561087625,0.06666666666666667,-0.23333333333333334,-0.23333333333333334
1730305480.5266082,0.5130227628450914,-0.5654242246556807,0.09800206508102915,0.06666666666666667,-0.23333333333333334,-0.2
1730305480.5398388,0.5026503440026229,-0.5654242246556807,0.0988586103811735,0.06666666666666667,-0.26666666666666666,-0.06666666666666667
1730305480.5558827,0.4826503440026233,-0.5854242246556807,0.09223338985769347,0.06666666666666667,-0.26666666666666666,-0.0
1730305480.6006117,0.3656503440026224,-0.5064242246556806,0.07392203819193988,0.06666666666666667,-0.26666666666666666,0.03333333333333333
1730305480.6051908,0.24013557514454398,-0.3794242246556806,0.04329059744510433,0.03333333333333333,-0.26666666666666666,-0.0
1730305480.630509,0.20113557514454428,-0.2614242246556806,0.04720337222000648,0.0,-0.26666666666666666,-0.03333333333333333
1730305480.643082,0.25013557514454376,-0.3694242246556806,0.05715253405232135,0.06666666666666667,-0.26666666666666666,-0.06666666666666667
1730305480.6569407,0.2264627733707023,-0.44742422465568066,0.0377568445777694,0.03333333333333333,-0.26666666666666666,-0.0
1730305480.6913536,0.18646277337070138,-0.34042422465568056,0.03827252274876258,0.03333333333333333,-0.26666666666666666,0.03333333333333333
1730305480.7048569,0.16746277337070126,-0.08099783635452662,0.035773325476278206,0.06666666666666667,-0.26666666666666666,0.03333333333333333
1730305480.7203693,0.14561539009024038,-0.14999783635452668,0.016585707776136438,0.06666666666666667,-0.26666666666666666,-0.03333333333333333
1730305480.796218,0.19461539009023987,-0.1989978363545266,0.050177598936599566,0.06666666666666667,-0.26666666666666666,-0.1
1730305480.8005695,0.25361539009023915,-0.36599783635452665,0.05433358231463048,0.1,-0.26666666666666666,-0.06666666666666667
1730305480.8050632,0.25457601606245106,-0.40499783635452663,0.04655053805823872,0.1,-0.26666666666666666,-0.0
1730305480.8123581,0.25457601606245106,-0.34599783635452663,0.056839591003887247,0.06666666666666667,-0.3,-0.0
1730305480.8434765,0.1275760160624504,-0.2679978363545267,0.027327368778656602,0.06666666666666667,-0.3,-0.0
1730305480.8487265,0.0823263866998154,-0.2769978363545267,0.0032328534022632027,0.1,-0.3,-0.0
1730305480.8574178,0.1213263866998151,-0.34599783635452663,0.02221585546319993,0.06666666666666667,-0.26666666666666666,-0.0
1730305480.885099,0.1603263866998148,-0.2143110074298693,0.03823707340727145,0.06666666666666667,-0.26666666666666666,-0.03333333333333333
1730305480.9009044,0.22584738763156054,-0.2543110074298693,0.04863620301014926,0.06666666666666667,-0.26666666666666666,-0.03333333333333333
1730305480.9146175,0.2168473876315602,-0.29331100742986926,0.03955781313425799,0.06666666666666667,-0.23333333333333334,-0.0
1730305480.9609606,0.05984738763156017,-0.0873110074298693,0.02095751214688768,0.03333333333333333,-0.23333333333333334,-0.03333333333333333
1730305480.9609606,0.2068473876315604,-0.18531100742986928,0.0654304408434978,0.06666666666666667,-0.23333333333333334,-0.03333333333333333
1730305480.976065,0.24511906052608623,-0.36131100742986927,0.04498562783090376,0.1,-0.23333333333333334,-0.0
1730305481.0033257,0.2651190605260858,-0.29331100742986926,0.06335482175770801,0.03333333333333333,-0.23333333333333334,-0.0
1730305481.019171,0.2941190605260857,-0.18531100742986928,0.08137467035350499,0.03333333333333333,-0.23333333333333334,-0.03333333333333333
1730305481.034233,0.3751206091704642,-0.04341573074327909,0.08907269359835857,0.03333333333333333,-0.26666666666666666,-0.06666666666666667
1730305481.0566354,0.40512060917046355,-0.09241573074327908,0.10520123754273714,0.03333333333333333,-0.26666666666666666,-0.1
1730305481.077857,0.3361206091704645,-0.14141573074327907,0.09405686196243046,0.06666666666666667,-0.3,-0.06666666666666667
1730305481.0940375,0.39983040580517226,-0.24941573074327905,0.0925393577881386,0.06666666666666667,-0.3,-0.03333333333333333
1730305481.126641,0.41983040580517184,-0.35741573074327904,0.11494960071000904,0.1,-0.3,-0.03333333333333333
1730305481.14097,0.2918304058051717,-0.2984157307432791,0.10234299119274937,0.03333333333333333,-0.3,-0.03333333333333333
1730305481.1558354,0.4662259977121117,-0.21041573074327907,0.1297766374432321,0.0,-0.26666666666666666,-0.16666666666666666
1730305481.1739674,0.6042259977121116,-0.2794157307432791,0.17308766233771689,0.03333333333333333,-0.26666666666666666,-0.13333333333333333
1730305481.1980379,0.525225997712111,-0.039364062651534526,0.1816856167634242,0.0,-0.3,-0.03333333333333333
1730305481.214017,0.5652841140539273,0.06863593734846546,0.1752710935976145,0.0,-0.3,-0.03333333333333333
1730305481.2562902,0.45728411405392677,0.1076359373484655,0.14606447475263362,0.0,-0.3333333333333333,-0.03333333333333333
1730305481.2562902,0.41198067296252816,0.1866359373484655,0.11182708768952576,0.0,-0.3333333333333333,-0.03333333333333333
1730305481.2761197,0.41198067296252816,0.3036359373484655,0.13672396523476849,0.0,-0.3333333333333333,-0.06666666666666667
1730305481.3131695,0.41198067296252816,0.19563593734846552,0.11400481405360274,0.06666666666666667,-0.3333333333333333,-0.03333333333333333
1730305481.3235095,0.4372907888746571,0.15663593734846548,0.11417162894358857,0.06666666666666667,-0.3333333333333333,-0.0
1730305481.3319287,0.33929078887465813,0.19563593734846552,0.10336863060949408,0.03333333333333333,-0.36666666666666664,-0.03333333333333333
1730305481.3579981,0.29818878011227845,0.23563593734846544,0.06851344300853679,0.06666666666666667,-0.36666666666666664,-0.0
1730305481.3912604,0.21018878011227748,0.25463593734846546,0.0788917848201649,0.06666666666666667,-0.36666666666666664,-0.0
1730305481.4095235,0.22018878011227727,0.20563593734846553,0.08175466141267584,0.06666666666666667,-0.36666666666666664,-0.06666666666666667
1730305481.4556403,0.221648176705461,0.21563593734846553,0.09179023519324225,0.06666666666666667,-0.36666666666666664,-0.03333333333333333
1730305481.4580002,0.221648176705461,0.1866359373484655,0.07501392546285679,0.1,-0.36666666666666664,-0.03333333333333333
1730305481.4640446,0.31364172845539073,0.1176359373484655,0.09485543706431177,0.13333333333333333,-0.36666666666666664,-0.0
1730305481.514237,0.31364172845539073,0.09763593734846548,0.11693413819029441,0.13333333333333333,-0.4,0.03333333333333333
1730305481.516251,0.32914141323504076,0.14663593734846547,0.12109874943166865,0.1,-0.43333333333333335,-0.0
1730305481.5277236,0.20214141323504187,0.19563593734846552,0.05425912255909715,0.1,-0.4666666666666667,-0.03333333333333333
1730305481.5574014,0.13211844552498953,0.22563593734846543,0.03046784366080768,0.1,-0.4666666666666667,-0.06666666666666667
1730305481.5622048,0.053118445524990676,0.1866359373484655,0.014429619680421446,0.13333333333333333,-0.4666666666666667,-0.06666666666666667
1730305481.5737672,0.10354328518176459,0.08763593734846548,0.014664534469203794,0.16666666666666666,-0.4666666666666667,-0.06666666666666667
1730305481.6203053,0.0055432851817656115,0.009635937348465462,0.020189598236629358,0.16666666666666666,-0.43333333333333335,-0.06666666666666667
1730305481.6229897,0.06838564643605682,-0.0103640626515345,0.05032498549559161,0.16666666666666666,-0.4,-0.03333333333333333
1730305481.6363952,0.13361450711805656,-0.029364062651534517,0.07161271273402736,0.16666666666666666,-0.36666666666666664,-0.0
1730305481.6625712,0.06461450711805661,-0.049364062651534535,0.04542413502133247,0.16666666666666666,-0.3333333333333333,0.03333333333333333
1730305481.6792462,0.1031981181071151,-0.11736406265153451,0.015339923282297718,0.16666666666666666,-0.3333333333333333,-0.0
1730305481.693102,0.05419811810711472,-0.1763640626515345,-0.016859826255869237,0.16666666666666666,-0.3333333333333333,-0.0
1730305481.724384,0.014198118107114688,-0.09420810714975127,-0.010423004397861035,0.16666666666666666,-0.3333333333333333,-0.0
1730305481.754854,0.03510401300282506,-0.12320810714975126,-0.034425589814574664,0.16666666666666666,-0.3333333333333333,0.03333333333333333
1730305481.7702708,-0.07289598699717459,-0.035208107149751255,-0.04769038438100637,0.13333333333333333,-0.3333333333333333,0.03333333333333333
1730305481.7814398,-0.0007009819853944776,0.02379189285024874,-0.008490195971795345,0.16666666666666666,-0.3,0.06666666666666667
1730305481.80049,0.0482990180146059,0.02379189285024874,-0.0012553194063107398,0.13333333333333333,-0.26666666666666666,0.06666666666666667
1730305481.8116465,0.2697492620667621,-0.035208107149751255,0.08470812781624648,0.16666666666666666,-0.26666666666666666,0.03333333333333333
1730305481.857078,0.2987492620667629,-0.025208107149751274,0.07804897777358732,0.13333333333333333,-0.3,0.03333333333333333
1730305481.862739,0.36774926206676284,0.03379189285024872,0.14110450611817882,0.16666666666666666,-0.3,0.03333333333333333
1730305481.889846,0.3954201871159375,0.11179189285024871,0.14247789083352203,0.16666666666666666,-0.3,0.03333333333333333
1730305481.9072561,0.37542018711593705,0.15179189285024874,0.15536100373142503,0.16666666666666666,-0.3333333333333333,0.03333333333333333
1730305481.9201932,0.3954201871159375,0.004791892850248725,0.17614462268423736,0.2,-0.3333333333333333,-0.0
1730305481.936276,0.464276558677831,-0.07420810714975126,0.19651393787230642,0.2,-0.3333333333333333,-0.0
1730305481.9951234,0.3852765586778313,-0.05420810714975126,0.1812632064241244,0.16666666666666666,-0.36666666666666664,-0.0
1730305481.997145,0.41728247655996764,-0.07420810714975126,0.1802277338228757,0.2,-0.36666666666666664,-0.03333333333333333
1730305482.0005636,0.2702824765599674,-0.15220810714975128,0.11780849158996709,0.2,-0.4,-0.06666666666666667
1730305482.027013,0.16228247655996775,-0.02,0.1232239079564641,0.16666666666666666,-0.4,-0.06666666666666667
1730305482.0401578,0.1274013857972367,-0.039,0.025438386183179063,0.16666666666666666,-0.43333333333333335,-0.1
1730305482.0556517,0.0845960877868901,0.0,0.002747515651127408,0.13333333333333333,-0.43333333333333335,-0.13333333333333333
1730305482.085654,0.026596087786889377,-0.078,0.06325030977444523,0.13333333333333333,-0.36666666666666664,-0.1
1730305482.1002154,0.25982875161960006,-0.206,0.1383498079425376,0.13333333333333333,-0.3333333333333333,-0.0
1730305482.1154392,0.3488287516196005,-0.196,0.17086843376270355,0.13333333333333333,-0.3,0.03333333333333333
1730305482.1423192,0.3878287516196002,-0.098,0.17868599839939758,0.1,-0.3,0.06666666666666667
1730305482.1772127,0.4080609256031238,0.0,0.1574723779423186,0.1,-0.3,0.1
1730305482.191597,0.22206092560312385,0.097,0.09871786964146345,0.1,-0.3333333333333333,0.06666666666666667
1730305482.2055671,0.22425354897504945,0.097,0.05831980887140453,0.13333333333333333,-0.3,0.06666666666666667
1730305482.2202559,0.22425354897504945,0.0,0.08587660952485265,0.16666666666666666,-0.3,0.03333333333333333
1730305482.2346337,0.1652535489750493,0.0,0.0904394067417531,0.13333333333333333,-0.3,0.03333333333333333
1730305482.2726617,0.34636696380109466,-0.039,0.1317866199379969,0.16666666666666666,-0.26666666666666666,0.03333333333333333
1730305482.2816586,0.27836696380109505,-0.098,0.12773622425656406,0.16666666666666666,-0.26666666666666666,0.06666666666666667
1730305482.289813,0.16036696380109472,-0.049,0.08201606303554154,0.13333333333333333,-0.26666666666666666,0.06666666666666667
1730305482.3421485,0.04936092705529216,0.097,0.028399494327432606,0.16666666666666666,-0.26666666666666666,0.06666666666666667
1730305482.34653,-0.14663907294470846,0.146,-0.022553465633732728,0.2,-0.2,0.1
1730305482.355858,-0.4806390729447081,0.117,-0.1585848372988563,0.26666666666666666,-0.16666666666666666,0.16666666666666666
1730305482.4439874,-0.7268053771215941,0.107,-0.24098136232594758,0.3,-0.03333333333333333,0.2
1730305482.4488869,-0.7168053771215934,0.166,-0.29636598394714575,0.26666666666666666,0.06666666666666667,0.1
1730305482.4537747,-0.1878053771215935,0.058,-0.25182575019269127,0.23333333333333334,0.06666666666666667,-0.0
1730305482.4757752,-0.16780537712159393,0.028,-0.21130176021538105,0.23333333333333334,-0.06666666666666667,-0.03333333333333333
1730305482.480885,-0.2658053771215938,0.068,-0.23471213055045315,0.2,-0.06666666666666667,0.03333333333333333
1730305482.484929,-0.2758053771215936,0.05379189285024874,-0.1303458052234534,0.2,-0.1,0.2
1730305482.505045,-0.32480537712159396,0.2397918928502487,-0.10337288209664841,0.26666666666666666,-0.06666666666666667,0.23333333333333334
1730305482.520254,-0.3148053771215933,0.20979189285024874,-0.06710977465863,0.3333333333333333,-0.03333333333333333,0.23333333333333334
1730305482.5603313,-0.08917332498916242,0.03379189285024872,-0.0038927887494963898,0.36666666666666664,0.0,0.16666666666666666
1730305482.5603313,0.16582667501083836,-0.31820810714975123,0.021034766719098208,0.4,0.0,0.2
1730305482.5780683,0.3228266750108384,-0.45520810714975124,0.08037938120766075,0.4,-0.03333333333333333,0.3
1730305482.5939662,0.3328266750108382,-0.41620810714975126,0.15240549713440732,0.36666666666666664,-0.03333333333333333,0.4
1730305482.6241467,0.3718266750108379,-0.226,0.1705301919264599,0.4,-0.03333333333333333,0.4666666666666667
1730305482.6405861,0.4498266750108382,-0.108,0.21789565018778578,0.36666666666666664,0.0,0.4666666666666667
1730305482.6683295,0.46982667501083775,0.019,0.1780647914475164,0.36666666666666664,0.0,0.4666666666666667
1730305482.683985,0.5388266750108377,-0.039,0.235127588998429,0.4,0.0,0.43333333333333335
1730305482.699181,0.7248266750108376,-0.235,0.2711726197113524,0.4,0.0,0.36666666666666664
1730305482.740642,0.999826675010838,-0.304,0.3503468166502586,0.36666666666666664,-0.03333333333333333,0.36666666666666664
1730305482.740642,0.8718266750108379,-0.216,0.35178698962371424,0.36666666666666664,-0.1,0.4
1730305482.758961,0.6468266750108382,-0.029,0.3470303044767258,0.36666666666666664,-0.1,0.4666666666666667
1730305482.7748775,0.5878266750108381,0.136,0.2894136836200145,0.43333333333333335,-0.06666666666666667,0.5666666666666667
1730305482.8069274,0.6782151593962373,0.215,0.29822651215759066,0.4666666666666667,-0.03333333333333333,0.5666666666666667
1730305482.8290067,0.805215159396238,0.244,0.297215557811243,0.4666666666666667,-0.03333333333333333,0.5333333333333333
1730305482.8572848,0.8442151593962377,0.254,0.26809656056067954,0.5,-0.06666666666666667,0.5333333333333333
1730305482.8572848,0.736215159396238,0.323,0.21830447997202285,0.5,-0.06666666666666667,0.5333333333333333
1730305482.878239,0.648215159396238,0.411,0.18442527529047492,0.5333333333333333,-0.06666666666666667,0.5333333333333333
1730305482.9040437,0.6382151593962373,0.362,0.20924451284264833,0.6,-0.06666666666666667,0.5333333333333333
1730305482.9231114,0.5992151593962376,0.215,0.1688322981256043,0.6333333333333333,-0.1,0.5
1730305482.9405322,0.40321515939623787,0.136,0.11167950045180852,0.6,-0.13333333333333333,0.4
1730305482.955554,0.2562151593962376,0.195,0.087301614119216,0.5666666666666667,-0.1,0.36666666666666664
1730305483.0007486,0.20721515939623725,0.185,0.03789732925063749,0.6333333333333333,-0.06666666666666667,0.3333333333333333
1730305483.0043545,0.2272151593962377,0.038,0.04606057685837861,0.6666666666666666,-0.03333333333333333,0.3333333333333333
1730305483.0308294,0.2762151593962372,-0.167,0.08983716113511608,0.7,-0.06666666666666667,0.3333333333333333
1730305483.073895,0.2762151593962372,-0.284,0.04733811491979978,0.7,-0.03333333333333333,0.3
1730305483.0835478,0.2952151593962373,-0.26979189285024874,0.0738119264804773,0.7,-0.03333333333333333,0.23333333333333334
1730305483.1309762,0.23621515939623805,-0.46579189285024875,-0.07056006420507899,0.7,-0.03333333333333333,0.2
1730305483.1389592,0.1282151593962375,-0.46163593734846553,-0.006341093282761001,0.7,-0.06666666666666667,0.3333333333333333
1730305483.1432757,0.1282151593962375,-0.47163593734846543,0.020321250479056197,0.6666666666666666,-0.03333333333333333,0.4
1730305483.1467955,0.10921515939623738,-0.4326359373484655,-0.029548752761549224,0.6666666666666666,0.0,0.43333333333333335
1730305483.1642153,0.07921515939623802,-0.3395842692567209,-0.019654784049523144,0.7,0.0,0.43333333333333335
1730305483.1736476,0.08921515939623781,-0.506584269256721,0.049524193705453357,0.7,0.0,0.36666666666666664
1730305483.190057,0.28521515939623754,-0.47268899257013075,0.05802902530733611,0.6333333333333333,0.0,0.23333333333333334
1730305483.2233362,0.40321515939623787,-0.5316889925701307,0.0705419054176657,0.5666666666666667,0.0,0.16666666666666666
1730305483.2406883,0.46221515939623803,-0.6686889925701307,0.09980048697190913,0.6,0.03333333333333333,0.13333333333333333
1730305483.2573678,0.7272151593962377,-0.8456889925701307,0.16201519818156296,0.6333333333333333,0.03333333333333333,0.13333333333333333
1730305483.2912655,0.8152151593962378,-0.9690021636454734,0.18291376913717095,0.6666666666666666,0.0,0.26666666666666666
1730305483.3046687,0.6782151593962373,-0.9355757753443195,0.1661847220681576,0.6666666666666666,-0.03333333333333333,0.3333333333333333
1730305483.329092,0.5212151593962373,-0.8765757753443193,0.11936430701950496,0.6333333333333333,-0.03333333333333333,0.36666666666666664
1730305483.34521,0.5212151593962373,-0.8085757753443195,0.11567658060465114,0.6,-0.03333333333333333,0.3333333333333333
1730305483.3739567,0.4322151593962378,-0.7064617411955032,0.15421285030426635,0.6,-0.03333333333333333,0.23333333333333334
1730305483.3739567,0.42321515939623744,-0.8734617411955032,0.15163555088006309,0.6,0.0,0.23333333333333334
1730305483.4059546,0.3518266750108383,-0.8707118795817581,0.1861340596608949,0.6,0.0,0.26666666666666666
1730305483.4614003,0.39182667501083834,-0.9297118795817578,0.15107185047262028,0.5333333333333333,-0.03333333333333333,0.26666666666666666
1730305483.4614003,0.39182667501083834,-0.968711879581758,0.19193749289863415,0.5,-0.03333333333333333,0.3
1730305483.4711516,0.3518266750108383,-0.8873778979553353,0.2587055451587963,0.5,-0.03333333333333333,0.3
1730305483.4778275,0.3128266750108377,-0.6813778979553353,0.23573258427124166,0.4,-0.03333333333333333,0.36666666666666664
1730305483.494261,0.42082667501083826,-0.49537789795533493,0.23736347624326903,0.36666666666666664,0.0,0.26666666666666666
1730305483.5568855,0.49882667501083766,-0.4263778979553352,0.2047574346302401,0.36666666666666664,0.0,0.23333333333333334
1730305483.562085,0.5388266750108377,-0.4173778979553351,0.19906138281701047,0.4,0.0,0.26666666666666666
1730305483.562085,0.6068266750108382,-0.2285113770874132,0.3077748919984993,0.4,-0.03333333333333333,0.26666666666666666
1730305483.5968633,0.7248266750108376,-0.24851137708741322,0.2902180545608708,0.4,-0.03333333333333333,0.23333333333333334
1730305483.6035168,0.7838266750108378,-0.3165113770874133,0.28733574245034355,0.4,-0.06666666666666667,0.26666666666666666
1730305483.6138725,0.6858266750108379,-0.3165113770874133,0.32713183977788507,0.43333333333333335,-0.06666666666666667,0.3
1730305483.6570241,0.616826675010838,-0.27751137708741336,0.250622452673225,0.43333333333333335,-0.06666666666666667,0.36666666666666664
1730305483.6570241,0.5288266750108379,-0.19851137708741318,0.22784782819840466,0.43333333333333335,-0.1,0.4
1730305483.6740818,0.3128266750108377,-0.25751137708741334,0.1311232666809845,0.4666666666666667,-0.06666666666666667,0.43333333333333335
1730305483.7075064,0.3518266750108383,-0.17951137708741327,0.13180501915867104,0.4,-0.06666666666666667,0.26666666666666666
1730305483.7201374,0.34282667501083797,0.057836244643904466,0.10069463827416936,0.36666666666666664,-0.1,0.16666666666666666
1730305483.7368815,0.26382667501083823,-0.05016375535609541,0.1202326763452124,0.43333333333333335,-0.06666666666666667,0.16666666666666666
1730305483.7618487,0.2838266750108378,-0.1681637553560955,0.11784108892003609,0.43333333333333335,-0.06666666666666667,0.16666666666666666
1730305483.77848,0.24382667501083777,-0.2561637553560956,0.08435377436737568,0.43333333333333335,-0.06666666666666667,0.2
1730305483.7949839,0.21482667501083785,-0.3151637553560953,0.07487998142064534,0.43333333333333335,-0.1,0.23333333333333334
1730305483.8273656,0.06782667501083761,-0.3741637553560955,0.04711929043062124,0.4,-0.13333333333333333,0.23333333333333334
1730305483.8576498,-0.0011733249891623387,-0.38416375535609526,0.047253401822010765,0.43333333333333335,-0.1,0.3
1730305483.8633523,-0.02017332498916158,-0.2553863130777807,0.051733554650080116,0.43333333333333335,-0.06666666666666667,0.3333333333333333
1730305483.890591,-0.05017332498916183,-0.21638631307778056,0.031217294173076837,0.36666666666666664,-0.06666666666666667,0.3
1730305483.9068487,0.0388266750108377,-0.20638631307778077,0.06966055877913746,0.4,-0.06666666666666667,0.26666666666666666
1730305483.9166539,-0.030173324989162253,-0.2843863130777806,0.052483273193572266,0.4,-0.06666666666666667,0.3
1730305483.9468772,-0.08917332498916242,-0.27438631307778083,0.00028275169176694703,0.36666666666666664,-0.06666666666666667,0.4
1730305483.9917378,-0.05017332498916183,-0.24538631307778092,0.018711781294969754,0.4,-0.03333333333333333,0.4
1730305483.9970021,-0.02017332498916158,-0.26538631307778093,0.08353449985981509,0.4,-0.03333333333333333,0.4
1730305484.02015,0.1068266750108382,-0.32338631307778076,0.15068297184758705,0.4,0.0,0.36666666666666664
1730305484.0247164,0.30282667501083793,-0.26538631307778093,0.1467497760055636,0.36666666666666664,0.0,0.3333333333333333
1730305484.0368538,0.34282667501083797,-0.01923015688668439,0.13459536402377292,0.3333333333333333,0.0,0.3333333333333333
1730305484.0619125,0.34282667501083797,0.019769843113315755,0.07653716787625608,0.36666666666666664,0.0,0.26666666666666666
1730305484.0975225,0.12619462287840655,0.03976984311331577,0.03094485387072954,0.36666666666666664,-0.03333333333333333,0.2
1730305484.1107361,0.09719462287840663,0.11776984311331562,-0.04610193635632154,0.3,-0.03333333333333333,0.06666666666666667
1730305484.1270504,-0.010805377121593907,0.2457698431133155,0.06914651566805219,0.23333333333333334,-0.06666666666666667,-0.2
1730305484.1426477,-0.011173324989162126,0.058769843113315456,0.1708313548295015,0.3333333333333333,-0.03333333333333333,-0.16666666666666666
1730305484.153806,0.39182667501083834,-0.676386313077781,0.2899360429624185,0.4666666666666667,0.0,0.23333333333333334
1730305484.1852567,0.7462151593962378,-0.6272301568866845,0.36668532406212684,0.43333333333333335,0.0,0.3
1730305484.2122378,0.6782151593962373,-0.7063863130777808,0.3259337549133834,0.36666666666666664,-0.06666666666666667,0.36666666666666664
1730305484.2122378,0.6192151593962381,-0.6273863130777806,0.31332389915322434,0.36666666666666664,-0.06666666666666667,0.43333333333333335
1730305484.245654,0.531215159396238,-0.5203863130777808,0.26642956616273406,0.3333333333333333,-0.1,0.4666666666666667
1730305484.2613785,0.4322151593962378,-0.32338631307778076,0.18707684234988875,0.3,-0.06666666666666667,0.43333333333333335
1730305484.2756913,0.44221515939623757,-0.2253863130777809,0.13992295607744332,0.3333333333333333,-0.06666666666666667,0.3333333333333333
1730305484.3078053,0.49121515939623794,-0.24538631307778092,0.10288918207361863,0.36666666666666664,-0.03333333333333333,0.26666666666666666
1730305484.3368266,0.5012151593962377,-0.1272301568866845,0.1325720952352869,0.36666666666666664,-0.03333333333333333,0.23333333333333334
1730305484.3514426,0.6382151593962373,-0.20523015688668433,0.13100905850587896,0.4,-0.03333333333333333,0.23333333333333334
1730305484.3746731,0.7662151593962374,-0.36223015688668436,0.23343606639125625,0.43333333333333335,-0.06666666666666667,0.23333333333333334
1730305484.385146,0.7072151593962372,-0.5392301568866844,0.186527014697643,0.43333333333333335,-0.1,0.26666666666666666
1730305484.4234653,0.45221515939623735,-0.6762301568866844,0.18239831627740966,0.43333333333333335,-0.13333333333333333,0.3
1730305484.4310958,0.3542151593962375,-0.5882301568866843,0.1096524765308926,0.4,-0.1,0.3333333333333333
1730305484.4413106,0.2272151593962377,-0.21574620416725931,0.0854876560011757,0.4,-0.1,0.3333333333333333
1730305484.48684,-0.0011733249891623387,-0.0787462041672593,0.007067019353033999,0.43333333333333335,-0.1,0.4
1730305484.5313547,-0.05017332498916183,-0.26474620416725925,0.03927323687125206,0.4666666666666667,-0.06666666666666667,0.4
1730305484.5379868,-0.04017332498916204,-0.4117462041672595,0.05144362382250822,0.4,-0.03333333333333333,0.23333333333333334
1730305484.5453765,0.21482667501083785,-0.3137462041672592,0.09331819418240173,0.3,-0.03333333333333333,0.16666666666666666
1730305484.551183,0.3718266750108379,-0.25474620416725946,0.13505459726258628,0.3333333333333333,-0.03333333333333333,0.23333333333333334
1730305484.5612915,0.4498266750108382,-0.4217462041672593,0.1808359988686652,0.4,-0.06666666666666667,0.3333333333333333
1730305484.574884,0.43082667501083804,-0.5097462041672594,0.217347913070288,0.4,-0.06666666666666667,0.36666666666666664
1730305484.6059723,0.38182667501083767,-0.19698516754427153,0.18303527570751665,0.3333333333333333,-0.1,0.3333333333333333
1730305484.6162386,0.24382667501083777,-0.029985167544271274,0.11120769452606893,0.36666666666666664,-0.1,0.4
1730305484.647413,0.13682667501083756,-0.12798516754427114,0.042953558378842516,0.4,-0.06666666666666667,0.36666666666666664
1730305484.6649692,0.19482667501083828,-0.09898516754427122,0.06317511797758524,0.36666666666666664,-0.06666666666666667,0.36666666666666664
1730305484.6792135,0.273826675010838,0.02901483245572889,0.08544107515054211,0.3333333333333333,-0.03333333333333333,0.3
1730305484.6958218,0.3718266750108379,-0.0789851675442712,0.15003177521588817,0.36666666666666664,-0.03333333333333333,0.2
1730305484.7407115,0.2341946228784062,-0.36398516754427135,0.29581666472757817,0.43333333333333335,-0.03333333333333333,0.2
1730305484.7866488,0.3521946228784065,-0.39298516754427126,0.3247128227250373,0.3333333333333333,-0.03333333333333333,0.26666666666666666
1730305484.7884955,0.37119462287840665,-0.33398516754427154,0.29856822853576936,0.3333333333333333,-0.03333333333333333,0.23333333333333334
1730305484.793406,0.25419462287840666,-0.33398516754427154,0.21495627127800354,0.3333333333333333,-0.06666666666666667,0.3333333333333333
1730305484.796534,0.1951946228784065,-0.16798516754427117,0.17200596169635496,0.3,-0.06666666666666667,0.4
1730305484.8293357,0.12619462287840655,-0.0789851675442712,0.05696359490031533,0.3333333333333333,-0.06666666666666667,0.4
1730305484.8447793,-0.03080537712159348,-0.020985167544271377,-0.047834710015531634,0.3333333333333333,-0.06666666666666667,0.36666666666666664
1730305484.8891983,0.0571946228784066,0.01901483245572866,0.006562109801308225,0.36666666666666664,-0.03333333333333333,0.26666666666666666
1730305484.9066188,0.21419462287840663,-0.0009851675442713592,0.0007365889379693513,0.3333333333333333,-0.03333333333333333,0.23333333333333334
1730305484.9106152,0.2731946228784059,-0.19698516754427153,0.08706353516226262,0.4,-0.03333333333333333,0.3
1730305484.9358695,0.1963609270552915,-0.34398516754427133,0.13301686866059192,0.4,-0.03333333333333333,0.26666666666666666
1730305484.9700303,0.39236092705529213,-0.34398516754427133,0.16338776851475512,0.36666666666666664,-0.03333333333333333,0.3
1730305484.9739873,0.4613609270552921,-0.2749851675442714,0.20087010738353595,0.36666666666666664,-0.03333333333333333,0.3
1730305484.9803123,0.4613609270552921,-0.3049851675442712,0.2581912076721862,0.4,-0.06666666666666667,0.3333333333333333
1730305485.0093327,0.4023609270552919,-0.37398516754427114,0.22506208986169707,0.4,-0.06666666666666667,0.3333333333333333
1730305485.024766,0.3633609270552913,-0.2749851675442714,0.16759098413572104,0.3333333333333333,-0.06666666666666667,0.26666666666666666
1730305485.0534766,0.2453609270552919,0.08600246056476202,0.08178841673611181,0.3333333333333333,-0.06666666666666667,0.3
1730305485.0797398,0.22536092705529143,0.13500246056476195,0.05271026432851578,0.36666666666666664,-0.03333333333333333,0.23333333333333334
1730305485.0868273,0.2483669638010948,-0.27699753943523797,0.13876640621449532,0.43333333333333335,-0.03333333333333333,0.16666666666666666
1730305485.1011026,0.2483669638010948,-0.502997539435238,0.20139029992865876,0.43333333333333335,-0.06666666666666667,0.2
1730305485.125045,0.1703669638010954,-0.47299753943523815,0.150648869265825,0.36666666666666664,-0.06666666666666667,0.23333333333333334
1730305485.145424,0.03336696380109494,-0.3949975394352383,0.06341874790378643,0.3333333333333333,-0.06666666666666667,0.26666666666666666
1730305485.157799,-0.09463303619890517,-0.3069975394352382,0.007155192165220647,0.36666666666666664,-0.06666666666666667,0.3
1730305485.1757984,-0.12363303619890509,-0.22799753943523804,-0.0026592457774459177,0.3333333333333333,-0.03333333333333333,0.26666666666666666
1730305485.2199156,0.023366963801095153,-0.21799753943523825,0.030378403268703558,0.3333333333333333,-0.03333333333333333,0.26666666666666666
1730305485.2250495,0.14036696380109515,-0.2869975394352382,0.10252059722598794,0.36666666666666664,0.0,0.23333333333333334
1730305485.2315612,0.14625354897504916,-0.17183357666995214,0.14911653302677141,0.3333333333333333,0.0,0.2
1730305485.2653906,0.20525354897504933,-0.1618335766699519,0.17817789194967393,0.3333333333333333,-0.03333333333333333,0.2
1730305485.295486,0.22425354897504945,-0.21083357666995228,0.17714725785102647,0.3333333333333333,0.0,0.23333333333333334
1730305485.3248448,0.21425354897504878,-0.2308335766699523,0.1819026822041554,0.3333333333333333,-0.03333333333333333,0.23333333333333334
1730305485.3288925,0.03825354897504951,-0.06383357666995204,0.10358817739693205,0.3,-0.03333333333333333,0.26666666666666666
1730305485.3409626,-0.14774645102495043,0.034166423330047824,-0.005788884999143207,0.3333333333333333,-0.03333333333333333,0.3
1730305485.355446,-0.24674645102495063,0.05416642333004784,-0.05978674471927636,0.36666666666666664,-0.03333333333333333,0.26666666666666666
1730305485.3773034,-0.1287464510249512,0.05416642333004784,0.03488130902116193,0.3333333333333333,0.0,0.16666666666666666
1730305485.4397385,-0.040746451024951114,0.034166423330047824,0.0992265534051926,0.36666666666666664,0.0,0.1
1730305485.4397385,0.087253548975049,-0.18183357666995192,0.216251511118017,0.36666666666666664,0.0,0.06666666666666667
1730305485.452334,0.14306092560312322,-0.563833576669952,0.26442840105637533,0.4,0.0,0.03333333333333333
1730305485.463034,0.3200609256031237,-0.5938335766699523,0.26629967025849943,0.3,0.0,0.06666666666666667
1730305485.4926486,0.3300609256031235,-0.16554328518176575,0.23763178736575963,0.26666666666666666,0.0,0.2
1730305485.506825,0.25106092560312376,0.12845671481823429,0.13956205247954845,0.3,-0.03333333333333333,0.36666666666666664
1730305485.5198467,0.07506092560312361,0.1321664233300477,0.027333449149021583,0.36666666666666664,-0.06666666666666667,0.4
1730305485.54233,-0.17774645102495068,0.16116642333004805,-0.009216858450039389,0.4,-0.1,0.26666666666666666
1730305485.5633442,-0.35374645102495084,0.014166423330047806,-0.05315000208475862,0.4,-0.06666666666666667,0.16666666666666666
1730305485.5753767,-0.27574645102495055,0.011456714818234293,-0.023229223857033077,0.36666666666666664,-0.03333333333333333,0.13333333333333333
1730305485.6058342,-0.18774645102495047,-0.18554328518176577,0.02067759280809689,0.4,-0.03333333333333333,0.13333333333333333
1730305485.6236594,-0.06974645102495103,-0.2045432851817659,0.04246351342508703,0.36666666666666664,-0.03333333333333333,0.2
1730305485.6563528,-0.0629390743968763,-0.15554328518176552,0.03925381232449787,0.36666666666666664,0.0,0.26666666666666666
1730305485.670368,-0.00393907439687613,-0.17554328518176554,0.05121291638481651,0.4,-0.03333333333333333,0.36666666666666664
1730305485.6853237,-0.022939074396876258,-0.17554328518176554,0.0427858165195838,0.36666666666666664,-0.03333333333333333,0.4
1730305485.6937509,-0.022939074396876258,-0.018543285181765512,-0.014744465114409522,0.36666666666666664,-0.03333333333333333,0.4666666666666667
1730305485.7143757,-0.12193907439687646,0.08945671481823414,-0.059452104202676104,0.4,-0.03333333333333333,0.5
1730305485.7570968,-0.3671712483803997,0.02045671481823419,-0.10708091611865278,0.43333333333333335,-0.03333333333333333,0.36666666666666664
1730305485.7570968,-0.15117124838039953,-0.2635432851817656,0.11438374738843482,0.4,0.0,0.16666666666666666
1730305485.7745006,0.22082875161960036,-0.6855432851817658,0.2633975218171418,0.36666666666666664,0.0,0.13333333333333333
1730305485.8066394,0.21082875161960057,-0.8125432851817656,0.27117720576087834,0.36666666666666664,0.0,0.3
1730305485.8284073,0.22082875161960036,-0.8125432851817656,0.27973463680575783,0.36666666666666664,0.0,0.43333333333333335
1730305485.8507836,0.13282875161960028,-0.6855432851817658,0.17469183546135714,0.3333333333333333,-0.03333333333333333,0.5
1730305485.8749316,-0.06317124838039945,-0.44054328518176566,0.04214294748646541,0.3,-0.03333333333333333,0.5333333333333333
1730305485.8749316,-0.19117124838039956,-0.25354328518176583,-0.008135840148208118,0.26666666666666666,0.0,0.43333333333333335
1730305485.8948445,-0.23017124838040015,-0.1265432851817656,-0.031360624772399426,0.23333333333333334,0.0,0.2
1730305485.9237285,-0.18117124838039977,-0.2045432851817659,0.0038294681353638893,0.26666666666666666,0.03333333333333333,0.13333333333333333
1730305485.939974,-0.004171248380400172,-0.3815432851817655,0.08533171803473749,0.3,0.03333333333333333,0.06666666666666667
1730305485.9570332,-0.07240391221310993,-0.6165432851817658,0.12515746001839645,0.26666666666666666,0.03333333333333333,0.06666666666666667
1730305485.9958951,-0.013403912213110658,-0.6655432851817658,0.1876586462618297,0.23333333333333334,0.0,0.13333333333333333
1730305486.004278,0.0845960877868901,-0.5775432851817657,0.1658425617989563,0.2,0.03333333333333333,0.2
1730305486.0161455,0.10459608778688967,-0.5675432851817659,0.20177381816660844,0.23333333333333334,0.03333333333333333,0.23333333333333334
1730305486.0410118,0.06559608778688997,-0.6655432851817658,0.2779998315255918,0.23333333333333334,0.03333333333333333,0.16666666666666666
1730305486.0579934,0.07559608778688975,-0.6955432851817656,0.23589126607269328,0.16666666666666666,0.06666666666666667,0.1
1730305486.1062582,-0.039598614202763116,-0.4985432851817655,0.14810811242029231,0.1,0.06666666666666667,0.06666666666666667
1730305486.1062582,-0.09759861420276383,-0.2635432851817656,0.05831895718007907,0.06666666666666667,0.06666666666666667,0.1
1730305486.1359513,-0.20559861420276349,-0.07754328518176568,-0.042325790243364914,0.1,0.06666666666666667,0.1
1730305486.1496527,-0.26459861420276365,0.02045671481823419,-0.12406105903004594,0.1,0.1,0.13333333333333333
1730305486.165701,-0.4215986142027637,0.07945671481823435,-0.22612494709739828,0.13333333333333333,0.1,0.13333333333333333
1730305486.1806574,-0.6175986142027634,0.1484567148182343,-0.26857523237595693,0.13333333333333333,0.1,0.13333333333333333
1730305486.1932182,-0.9067175234400322,0.1484567148182343,-0.33845032175429246,0.13333333333333333,0.13333333333333333,0.13333333333333333
1730305486.2252913,-0.9167175234400329,0.07945671481823435,-0.3542314963100246,0.16666666666666666,0.16666666666666666,0.1
1730305486.2425523,-0.6317175234400327,-0.0965432851817658,-0.18096424146917123,0.16666666666666666,0.2,0.1
1730305486.2573829,-0.5147175234400327,-0.15554328518176552,-0.1098912844090778,0.13333333333333333,0.23333333333333334,0.13333333333333333
1730305486.278762,-0.5657234413221692,-0.2435432851817656,-0.10113216082466092,0.13333333333333333,0.23333333333333334,0.16666666666666666
1730305486.311941,-0.4477234413221689,-0.21454328518176569,-0.05888481876262919,0.1,0.26666666666666666,0.2
1730305486.3448825,-0.3307234413221689,-0.11654328518176582,-0.03584234822578036,0.1,0.26666666666666666,0.2
1730305486.3448825,-0.30157981288406255,0.02045671481823419,0.0024229928149646085,0.06666666666666667,0.3,0.2
1730305486.358783,0.08142018711593746,-0.11283357666995197,0.10837956972891316,0.1,0.3,0.2
1730305486.391222,0.04374926206676211,-0.29983357666995225,0.150433759109311,0.13333333333333333,0.26666666666666666,0.16666666666666666
1730305486.4071567,-0.06425073793323755,-0.269833576669952,0.09400184948992152,0.1,0.23333333333333334,0.23333333333333334
1730305486.4392452,-0.29925073793323786,-0.04483357666995191,-0.03828302930197758,0.06666666666666667,0.23333333333333334,0.26666666666666666
1730305486.454623,-0.5597009819853938,0.24016642333004778,-0.1196650971045159,0.06666666666666667,0.26666666666666666,0.2
1730305486.4792266,-0.18670098198539442,0.367166423330048,-0.002743215155599721,0.06666666666666667,0.3333333333333333,0.03333333333333333
1730305486.4792266,0.15629901801460555,-0.13999753943523796,0.1328661339858357,0.13333333333333333,0.36666666666666664,-0.0
1730305486.4915774,0.29010401300282496,-0.453997539435238,0.2230678715280261,0.1,0.3333333333333333,-0.03333333333333333
1730305486.5244155,0.41810401300282507,-0.5219975394352381,0.2406786917739172,0.06666666666666667,0.3,0.03333333333333333
1730305486.5561187,0.25019811810711445,-0.38499753943523807,0.2303267022216433,0.03333333333333333,0.26666666666666666,0.23333333333333334
1730305486.5697742,0.12219811810711523,-0.12999753943523817,0.16946362131867332,0.03333333333333333,0.23333333333333334,0.3
1730305486.584769,0.05419811810711472,0.08600246056476202,0.07259921787691681,0.0,0.26666666666666666,0.26666666666666666
1730305486.5948105,-0.0033854928819430086,0.04801483245572857,0.023390346548516128,0.03333333333333333,0.3,0.16666666666666666
1730305486.6403518,-0.043385492881943044,0.14601483245572888,0.0077620940842075825,0.03333333333333333,0.3,0.1
1730305486.6403518,-0.03338549288194326,0.18501483245572858,0.006850464880703733,0.03333333333333333,0.3,0.1
1730305486.659813,-0.1276143535639429,0.14601483245572888,0.003954324134303633,0.06666666666666667,0.3,0.13333333333333333
1730305486.6734467,0.029385646436057122,0.06801483245572859,0.09352539460677267,0.06666666666666667,0.3,0.1
1730305486.7068777,0.1825432851817652,-0.23574620416725933,0.1865081412218279,0.06666666666666667,0.3,0.03333333333333333
1730305486.71967,0.3095432851817659,-0.38274620416725913,0.17823480197233366,0.1,0.26666666666666666,0.16666666666666666
1730305486.73999,0.192543285181765,-0.2747462041672595,0.13265089850370604,0.06666666666666667,0.23333333333333334,0.3
1730305486.7603512,0.004118445524989411,-0.11774620416725945,0.07430522627647917,0.06666666666666667,0.23333333333333334,0.3
1730305486.7796137,-0.04488155447501008,0.0682537958327405,0.038257917130466446,0.03333333333333333,0.23333333333333334,0.3
1730305486.7953742,-0.01488155447500894,0.058769843113315456,0.012133074460599858,0.03333333333333333,0.26666666666666666,0.23333333333333334
1730305486.8402734,-0.0628585867649587,0.1277698431133154,0.020112845255775724,0.03333333333333333,0.26666666666666666,0.06666666666666667
1730305486.8402734,-0.013858586764959213,0.2057698431133157,0.02430913231185894,0.0,0.3,-0.0
1730305486.8703394,0.10414141323504111,0.07876984311331547,0.042562860760639865,0.1,0.3,0.1
1730305486.886021,0.13664172845539113,-0.03923015688668441,0.0673827874531705,0.1,0.3,0.1
1730305486.8999743,0.09764172845538965,-0.35338631307778057,0.025429201198083895,0.13333333333333333,0.26666666666666666,0.1
1730305486.9274793,-0.4653518232945393,-0.20638631307778077,-0.16640098064456943,0.13333333333333333,0.23333333333333334,0.3333333333333333
1730305486.9449735,-0.6813518232945395,-0.039386313077780954,-0.23353936855315194,0.13333333333333333,0.26666666666666666,0.3
1730305486.9579787,-0.6123518232945395,-0.029386313077780724,-0.24854348721263886,0.1,0.3333333333333333,0.13333333333333333
1730305486.9911315,-0.3288112198877222,-0.17638631307778097,-0.09793951643827459,0.1,0.36666666666666664,0.06666666666666667
1730305487.0080585,-0.07381121988772144,-0.2843863130777806,0.049820155894661156,0.1,0.36666666666666664,0.1
1730305487.021382,0.10218878011227694,-0.4231637553560954,0.07245427618342326,0.06666666666666667,0.36666666666666664,0.16666666666666666
1730305487.0365174,0.11329078887465727,-0.24616375535609536,0.07081961550027316,0.06666666666666667,0.3333333333333333,0.23333333333333334
1730305487.0798068,0.16229078887465676,-0.20716375535609566,0.07973571142336056,0.1,0.3333333333333333,0.26666666666666666
1730305487.0868273,-1.9327037472649522e-05,-0.10916375535609557,0.05981918909819228,0.06666666666666667,0.3333333333333333,0.2
1730305487.0988798,0.009980672962527137,-0.0401637553560954,0.033912953722360584,0.03333333333333333,0.3333333333333333,0.16666666666666666
1730305487.1230893,0.06798067296252697,-0.12051137708741333,0.020784377132561538,0.03333333333333333,0.36666666666666664,0.1
1730305487.1404982,0.06528411405392731,-0.10051137708741331,0.05753511628323782,0.06666666666666667,0.36666666666666664,0.16666666666666666
1730305487.156063,0.035284114053926174,0.11448862291258677,0.023858295135561036,0.06666666666666667,0.4,0.13333333333333333
1730305487.1863706,-0.10177400228788969,0.3104886229125867,-0.01605947619646919,0.06666666666666667,0.4,0.06666666666666667
1730305487.2001557,-0.15077400228788918,0.4284886229125868,-0.019259450761176744,0.13333333333333333,0.4,0.06666666666666667
1730305487.2148013,-0.17816959419482892,-0.005377897955335165,-0.04765473034959822,0.23333333333333334,0.43333333333333335,0.16666666666666666
1730305487.2402985,0.252830405805172,-0.5643778979553353,0.09355131808771855,0.3,0.4666666666666667,0.06666666666666667
1730305487.2610514,0.5811206091704637,-0.8283778979553351,0.2158414812033569,0.16666666666666666,0.43333333333333335,-0.0
1730305487.269738,0.8461206091704643,-0.7993778979553352,0.2718499495851612,0.03333333333333333,0.36666666666666664,0.16666666666666666
1730305487.3043964,0.7951190605260852,-0.5343778979553351,0.2587362751192126,0.0,0.3,0.43333333333333335
1730305487.3366137,0.5401190605260862,-0.3807118795817579,0.17773554018023185,0.03333333333333333,0.23333333333333334,0.7
1730305487.3418899,0.17711906052608484,-0.027711879581757914,0.06797276766703142,0.03333333333333333,0.23333333333333334,0.6333333333333333
1730305487.3657935,0.049119060526084724,0.12653825880449676,0.03324813712274466,0.0,0.26666666666666666,0.3333333333333333
1730305487.382593,0.10884738763155966,0.14653825880449678,0.061634995466945064,0.0,0.3333333333333333,-0.2
1730305487.3924851,0.471847387631561,-0.12846174119550335,0.13499948342805013,0.1,0.4,-0.0
1730305487.4428444,0.8538473876315607,-0.4224617411955034,0.22149855892837111,0.23333333333333334,0.36666666666666664,0.36666666666666664
1730305487.4581134,0.8173263866998148,-0.5535757753443193,0.19801286590641265,0.26666666666666666,0.3,0.6333333333333333
1730305487.4719248,0.40632638669981525,-0.14157577534431942,0.09093252487829773,0.2,0.2,0.6666666666666666
1730305487.4854493,0.013326386699814563,0.11999783635452665,-0.0084888298283321,0.13333333333333333,0.2,0.4666666666666667
1730305487.5383754,-0.3434239839375497,0.2759978363545267,-0.11014383899083668,0.1,0.23333333333333334,0.13333333333333333
1730305487.5424082,-0.10842398393754848,0.11999783635452665,-0.03753686023501057,0.13333333333333333,0.3333333333333333,-0.13333333333333333
1730305487.5698695,0.25457601606245106,-0.3020021636454734,0.07052870683698087,0.13333333333333333,0.3333333333333333,-0.3
1730305487.5725493,0.25361539009023915,-0.5770021636454733,0.0817981394579741,0.13333333333333333,0.26666666666666666,-0.1
1730305487.591997,0.04761539009023963,-0.4690021636454734,0.02397298267318826,0.1,0.23333333333333334,0.16666666666666666
1730305487.607129,-0.11838460990976074,-0.25300216364547345,-0.025351899341948148,0.06666666666666667,0.26666666666666666,0.13333333333333333
1730305487.621685,-0.04038460990975956,-0.2040021636454733,-0.014970560916582443,0.06666666666666667,0.3,0.06666666666666667
1730305487.634297,-0.09753722662929754,-0.2040021636454733,-0.030496527855789157,0.03333333333333333,0.3,-0.0
1730305487.6799603,-0.17553722662929871,-0.18400216364547328,-0.06441368010549242,0.03333333333333333,0.3,-0.0
1730305487.682772,-0.1465372266292988,-0.24300216364547345,-0.055482803096456035,0.06666666666666667,0.3333333333333333,0.06666666666666667
1730305487.694835,-0.07386442485545608,-0.3946889925701307,-0.02898549301265696,0.03333333333333333,0.3333333333333333,0.13333333333333333
1730305487.7383423,-0.02486442485545659,-0.3156889925701307,-0.01080015834450565,0.03333333333333333,0.3333333333333333,0.16666666666666666
1730305487.7383423,-0.0853496559973781,-0.2966889925701307,-0.019720280820507252,0.03333333333333333,0.3333333333333333,0.16666666666666666
1730305487.7559733,-0.0853496559973781,-0.24768899257013077,-0.027099999493360727,0.0,0.3333333333333333,0.03333333333333333
1730305487.7861722,-0.046349655997376615,-0.22768899257013075,-0.011104292110189817,0.0,0.3333333333333333,-0.0
1730305487.7943182,0.10102276284509237,-0.2966889925701307,0.02843116831865755,0.03333333333333333,0.36666666666666664,0.03333333333333333
1730305487.815713,0.24802276284509261,-0.3946889925701307,0.05272462712994974,0.03333333333333333,0.36666666666666664,0.1
1730305487.839199,0.2680227628450922,-0.36468899257013065,0.05801655005962347,0.0,0.3333333333333333,0.13333333333333333
1730305487.8735409,0.24126764410424073,-0.4375842692567209,0.056130899002021284,0.0,0.3333333333333333,0.16666666666666666
1730305487.8735409,0.2902676441042402,-0.35958426925672093,0.05631161470064949,0.0,0.3333333333333333,0.13333333333333333
1730305487.906969,0.26739892523247377,-0.26158426925672096,0.05168313492141152,-0.03333333333333333,0.3,0.13333333333333333
1730305487.9197755,0.28739892523247335,-0.13358426925672096,0.05882416726327122,0.0,0.3,0.16666666666666666
1730305487.9343421,0.22839892523247407,0.03241573074327908,0.04109277996395422,-0.03333333333333333,0.3333333333333333,0.1
1730305487.973375,0.3744296644568408,0.05241573074327904,0.06292335553100425,0.0,0.3333333333333333,-0.0
1730305487.9943442,0.5414296644568406,-0.25563593734846546,0.09520158129325518,0.03333333333333333,0.3,-0.0
1730305488.0073428,0.5604296644568407,-0.3146359373484655,0.08955991646413963,0.03333333333333333,0.26666666666666666,0.13333333333333333
1730305488.0240052,0.32737203680136595,-0.22663593734846543,0.04596793461455517,0.0,0.26666666666666666,0.16666666666666666
1730305488.0718,0.004372036801365553,-0.0496359373484655,-0.010650607730412709,0.0,0.23333333333333334,0.13333333333333333
1730305488.0760102,-0.3196279631986343,0.09736406265153452,-0.067731606569432,0.0,0.26666666666666666,0.13333333333333333
1730305488.099083,-0.5697626696215838,0.19536406265153453,-0.11421988333313648,0.0,0.3333333333333333,-0.0
1730305488.1028721,-0.18676266962158472,0.09736406265153452,-0.03589582712835271,0.0,0.43333333333333335,-0.23333333333333334
1730305488.1272824,0.39123733037841646,-0.36363593734846544,0.05351823253901866,0.06666666666666667,0.43333333333333335,-0.26666666666666666
1730305488.1403444,0.6250359429502392,-0.6776359373484655,0.07403947031667468,0.1,0.4,-0.03333333333333333
1730305488.1902525,0.3700359429502402,-0.7797918928502487,0.04542769862567564,0.03333333333333333,0.3,0.2
1730305488.1902525,0.08603594295023953,-0.5547918928502487,0.005842925554327527,0.03333333333333333,0.26666666666666666,0.36666666666666664
1730305488.2077143,-0.1972226212383017,-0.363,-0.03032361693378549,0.0,0.3,0.36666666666666664
1730305488.2208848,-0.42322262123830257,0.038,-0.06194750191688514,-0.06666666666666667,0.3333333333333333,0.16666666666666666
1730305488.23462,-0.4522226212383025,0.381,-0.06195037296893924,-0.06666666666666667,0.4,-0.13333333333333333
1730305488.2613149,-0.2715297543548054,0.126,-0.034776199151348886,0.03333333333333333,0.43333333333333335,-0.36666666666666664
1730305488.2969403,0.1794702456451951,-0.49,0.012876072055523657,0.13333333333333333,0.4666666666666667,-0.36666666666666664
1730305488.336328,0.6961222523986308,-0.9177918928502486,0.04307020161142916,0.13333333333333333,0.4,-0.1
1730305488.3498921,0.6961222523986308,-0.9177918928502486,0.04104387631740414,0.03333333333333333,0.3333333333333333,0.06666666666666667
1730305488.3567433,0.5001222523986311,-0.814,0.03518675376670721,0.0,0.3,0.2
1730305488.360555,0.10774020643723858,-0.471,0.007323831290107385,0.0,0.3,0.26666666666666666
1730305488.3843646,0.04974020643723698,-0.226,0.0029767414961830996,0.0,0.3,0.16666666666666666
1730305488.4024794,0.10774020643723858,-0.177,0.005024604018142198,0.0,0.3333333333333333,-0.0
1730305488.4270666,0.1503300117199764,-0.196,0.008165397986831802,0.0,0.3333333333333333,-0.0
1730305488.4583783,0.16033001171997618,-0.265,0.007816491198234576,0.0,0.3333333333333333,-0.0
1730305488.4698641,0.20933001171997567,-0.324,0.009274905787136745,0.03333333333333333,0.3,0.03333333333333333
1730305488.478166,0.20589666695112463,-0.363,0.010043141948305634,0.03333333333333333,0.3,0.1
1730305488.5068946,0.19589666695112307,-0.343,0.009519552613309612,0.03333333333333333,0.3,0.1
1730305488.5463557,0.15689666695112336,-0.294,0.005250161114904228,0.0,0.3,0.06666666666666667
1730305488.5463557,0.22444426405763096,-0.265,0.004450518062917713,0.03333333333333333,0.3,0.1
1730305488.5638993,0.14644426405762978,-0.284,0.0020412618634726987,0.03333333333333333,0.26666666666666666,0.1
1730305488.579061,0.1264442640576302,-0.294,0.0021201669432809322,0.03333333333333333,0.26666666666666666,0.13333333333333333
1730305488.6108449,0.020975986942669778,-0.196,0.00021208131722172396,0.0,0.26666666666666666,0.16666666666666666
1730305488.6222155,-0.09602401305732933,-0.049,-0.0007223199365815891,0.0,0.26666666666666666,0.2
1730305488.6399114,-0.20402401305732987,-0.045208107149751264,-0.00021786440143295623,0.0,0.26666666666666666,0.16666666666666666
1730305488.657087,-0.23850588948419826,0.15179189285024874,-0.0004898554840288699,0.0,0.26666666666666666,0.13333333333333333
1730305488.6855752,-0.042505889484198534,0.13179189285024873,-0.03807638764466793,0.0,0.3,0.1
1730305488.7026966,-0.03250588948419875,0.09279189285024875,-0.3124655984522875,0.03333333333333333,0.3,0.1
1730305488.7254026,-0.034000000000000696,0.06279189285024875,-0.5487663743940934,0.03333333333333333,0.3,0.1
1730305488.744191,-0.02400000000000091,-0.16636406265153453,-0.802581550748954,0.06666666666666667,0.3,0.13333333333333333
1730305488.760917,-0.0730000000000004,-0.24536406265153451,-0.5880484870686397,0.03333333333333333,0.26666666666666666,0.16666666666666666
1730305488.791256,0.006494110515800955,-0.21636406265153452,-0.8014286958600912,0.0,0.3,0.16666666666666666
1730305488.8084552,0.026494110515802305,-0.12736406265153452,-1.03583829032865,0.0,0.3,0.2
1730305488.824689,-0.002505889484199386,0.06863593734846546,-0.7615344472987016,0.03333333333333333,0.3,0.26666666666666666
1730305488.8508546,0.050975986942670914,0.0735842692567209,-1.091695663389844,0.0,0.3,0.2
1730305488.8651147,0.08997598694267062,0.08358426925672091,-1.4782786064010875,0.03333333333333333,0.3,0.1
1730305488.8795767,-0.02802401305732971,0.054584269256720885,-1.5071192733736885,0.03333333333333333,0.3,0.06666666666666667
1730305488.8835566,-0.059555735942369736,-0.004415730743279056,-1.6680588627667,0.03333333333333333,0.3,0.06666666666666667
1730305488.925132,-0.10855573594236922,-0.014415730743279065,-1.5141915103063703,0.06666666666666667,0.3,0.13333333333333333
1730305488.9405832,-0.22655573594236955,0.02458426925672097,-1.9376327537184928,0.06666666666666667,0.3,0.13333333333333333
1730305488.9547236,-0.26510333304887546,-0.0873110074298693,-1.9824918347732583,0.06666666666666667,0.3,0.16666666666666666
1730305488.982338,-0.3631033330488762,-0.057311007429869276,-2.071400738898989,0.1,0.3,0.2
1730305489.0155473,-0.32966998828002403,-0.06731100742986929,-2.008697362330481,0.1,0.3333333333333333,0.13333333333333333
1730305489.0309067,-0.270669988280023,-0.11631100742986933,-2.20201201592186,0.06666666666666667,0.36666666666666664,0.06666666666666667
1730305489.0595849,-0.11366998828002295,-0.3069978363545266,-2.3597534293207314,0.06666666666666667,0.36666666666666664,0.06666666666666667
1730305489.0738885,0.04974020643723698,-0.21899783635452663,-2.185385459315952,0.03333333333333333,0.36666666666666664,0.1
1730305489.0942154,0.24574020643723848,-0.21899783635452663,-2.567767180398108,0.03333333333333333,0.4,0.06666666666666667
1730305489.1116781,0.34312225239862926,-0.1989978363545266,-2.843894216081341,0.0,0.36666666666666664,-0.0
1730305489.12115,0.39212225239862875,-0.13999783635452667,-2.875518531675132,0.0,0.3333333333333333,0.03333333333333333
1730305489.1350477,0.4121222523986283,0.03600216364547337,-3.1354734163571183,0.03333333333333333,0.3333333333333333,0.16666666666666666
1730305489.1715236,0.3364702456451951,0.15400216364547326,-3.4149082621238303,0.03333333333333333,0.36666666666666664,0.16666666666666666
1730305489.1840827,0.35547024564519525,0.1930021636454734,-3.4671182722931593,0.03333333333333333,0.3,0.06666666666666667
1730305489.194727,0.2974702456451954,0.14400216364547336,-3.4773469427733716,0.06666666666666667,0.3,0.06666666666666667
1730305489.2253382,0.22377737876169768,-0.10442422465568058,-3.6286897962507902,0.1,0.3,0.16666666666666666
1730305489.2383566,0.08677737876169722,-0.11442422465568058,-3.9192748271846884,0.06666666666666667,0.26666666666666666,0.1
1730305489.257026,-0.05022262123830323,0.022575775344319426,-3.7512774527068657,0.06666666666666667,0.23333333333333334,0.1
1730305489.3131526,-0.20796405704976095,0.06257577534431946,-3.9391313447613454,0.1,0.26666666666666666,0.13333333333333333
1730305489.3131526,-0.2379640570497603,-0.00642422465568071,-3.9091557784943562,0.13333333333333333,0.26666666666666666,0.16666666666666666
1730305489.3244486,-0.09096405704976007,-0.36253825880449675,-3.92117938217446,0.13333333333333333,0.3,0.13333333333333333
1730305489.3577347,0.08723733037841619,-0.4415382588044967,-3.857075457559776,0.1,0.26666666666666666,0.1
1730305489.3617682,0.15623733037841525,-0.4515382588044967,-4.0538857227237,0.03333333333333333,0.26666666666666666,0.03333333333333333
1730305489.3757129,0.09723733037841598,-0.4315382588044967,-4.065160697556317,0.03333333333333333,0.26666666666666666,0.06666666666666667
1730305489.4210677,0.2293720368013652,-0.4615382588044967,-4.347513631814596,0.03333333333333333,0.3,0.23333333333333334
1730305489.4215178,0.21037203680136507,-0.26453825880449666,-4.367238523854978,0.0,0.3,0.26666666666666666
1730305489.487022,0.05337203680136504,0.28446174119550327,-4.044771192614036,-0.06666666666666667,0.3,0.2
1730305489.4910927,0.4353720368013665,0.20271187958175796,-4.287011650689574,-0.03333333333333333,0.36666666666666664,0.06666666666666667
1730305489.4948792,0.7574296644568417,0.03571187958175792,-4.863371706189604,-0.03333333333333333,0.3333333333333333,-0.06666666666666667
1730305489.5089967,0.7574296644568417,-0.013288120418242011,-4.883380533814741,-0.03333333333333333,0.26666666666666666,-0.03333333333333333
1730305489.5272803,0.8844296644568406,-0.062288120418242165,-4.802598792728936,0.0,0.23333333333333334,0.06666666666666667
1730305489.540122,1.0514296644568404,-0.48662210204466483,-4.920516607988862,0.03333333333333333,0.2,-0.0
1730305489.5548937,1.1693989252324748,-0.8196221020446649,-5.180198469402472,0.03333333333333333,0.13333333333333333,-0.06666666666666667
1730305489.586132,1.1013989252324734,-1.045622102044665,-5.1791399189715595,0.0,0.1,-0.06666666666666667
1730305489.5996969,1.071398925232474,-1.1236221020446648,-5.077657926086191,0.0,0.06666666666666667,-0.06666666666666667
1730305489.6149619,1.0323989252324743,-1.211622102044665,-5.2489073391286585,-0.03333333333333333,0.03333333333333333,-0.0
1730305489.6551578,1.0323989252324743,-1.211622102044665,-5.28572243997363,-0.06666666666666667,0.0,0.03333333333333333
1730305489.6551578,0.9443989252324734,-1.094622102044665,-5.285942996360831,-0.13333333333333333,0.0,0.03333333333333333
1730305489.673034,0.6693989252324748,-0.8396221020446649,-5.382940317780972,-0.16666666666666666,-0.03333333333333333,0.03333333333333333
1730305489.721903,0.49339892523247464,-0.7416221020446648,-5.458820004760126,-0.16666666666666666,-0.06666666666666667,0.03333333333333333
1730305489.721903,0.27739892523247356,-0.6036221020446648,-5.473521881412086,-0.16666666666666666,-0.1,0.03333333333333333
1730305489.735655,0.23839892523247386,-0.5546221020446649,-5.482128230093757,-0.13333333333333333,-0.1,0.06666666666666667
1730305489.761473,0.12039892523247353,-0.6726221020446649,-5.3648744212976585,-0.13333333333333333,-0.13333333333333333,0.03333333333333333
1730305489.7890654,-0.03757033554315825,-0.8296221020446649,-5.436650133989934,-0.13333333333333333,-0.16666666666666666,-0.03333333333333333
1730305489.8110435,-0.19457033554315828,-0.7782881204182421,-5.310665091500434,-0.16666666666666666,-0.16666666666666666,-0.06666666666666667
1730305489.8226888,-0.2135703355431584,-0.9932881204182421,-5.148039417092281,-0.13333333333333333,-0.13333333333333333,-0.06666666666666667
1730305489.840112,-0.1845703355431585,-1.2392881204182422,-5.045201726171605,-0.2,-0.13333333333333333,-0.1
1730305489.855932,-0.1455703355431588,-1.365288120418242,-4.922947688377265,-0.23333333333333334,-0.13333333333333333,-0.0
1730305489.8861198,0.03142966445684081,-1.1765382588044968,-5.011240131219616,-0.3333333333333333,-0.1,-0.0
1730305489.900405,0.12942966445684156,-1.0105382588044967,-5.157625839278586,-0.4,-0.1,-0.0
1730305489.9153159,-0.00757033554315889,-0.7255382588044967,-5.037206532005393,-0.43333333333333335,-0.13333333333333333,0.1
1730305489.9452796,-0.17262796319863405,-0.5985382588044967,-5.047759590053719,-0.4666666666666667,-0.13333333333333333,0.1
1730305489.9602284,-0.2996279631986347,-0.33042422465568067,-5.078096850771351,-0.43333333333333335,-0.13333333333333333,0.1
1730305489.9760633,-0.2806279631986346,-0.2614242246556806,-5.05243363771581,-0.4666666666666667,-0.1,0.06666666666666667
1730305490.0058496,-0.2996279631986347,-0.22242422465568057,-5.095336638415418,-0.5,-0.1,0.03333333333333333
1730305490.0202732,-0.3686279631986338,-0.15342422465568062,-5.091940957535497,-0.5333333333333333,-0.1,-0.0
1730305490.031701,-0.2416279631986349,-0.1434242246556806,-4.927261178072632,-0.5,-0.1,-0.0
1730305490.0611095,-0.2416279631986349,-0.21242422465568067,-4.928798475091268,-0.4666666666666667,-0.06666666666666667,0.03333333333333333
1730305490.07776,-0.3196279631986343,-0.2614242246556806,-4.833815374301589,-0.5,-0.06666666666666667,0.03333333333333333
1730305490.094819,-0.3096279631986345,-0.24142422465568059,-4.5622154907065955,-0.5333333333333333,-0.06666666666666667,-0.0
1730305490.1253226,-0.11362796319863477,-0.2814242246556806,-4.689472082013618,-0.5333333333333333,-0.03333333333333333,-0.0
1730305490.1413984,-0.16262796319863426,0.0660021636454734,-4.486568749195111,-0.5666666666666667,-0.06666666666666667,0.06666666666666667
1730305490.1570296,-0.17262796319863405,0.21300216364547342,-4.369941705756804,-0.5666666666666667,-0.03333333333333333,0.06666666666666667
1730305490.1860313,-0.22162796319863354,0.29100216364547327,-4.39827395694649,-0.5666666666666667,-0.03333333333333333,0.06666666666666667
1730305490.2008014,-0.2996279631986347,0.38000216364547346,-4.644608576724291,-0.5666666666666667,0.0,-0.0
1730305490.2145112,-0.3486279631986342,0.4580021636454733,-4.614328821491892,-0.5666666666666667,0.0,-0.0
1730305490.2395294,-0.33962796319863386,0.4480021636454733,-4.516335331685536,-0.5666666666666667,0.0,-0.03333333333333333
1730305490.2568362,-0.2806279631986346,0.35000216364547343,-4.525524164831543,-0.5,0.0,-0.0
1730305490.273607,-0.2706279631986348,0.3110021636454733,-4.408587356976665,-0.5,0.0,0.03333333333333333
1730305490.3066187,-0.17262796319863405,0.21300216364547342,-4.31313734697493,-0.5,0.0,0.03333333333333333
1730305490.340324,-0.08462796319863486,0.11500216364547333,-4.257455746428097,-0.5,0.0,-0.0
1730305490.358998,-0.01562796319863402,0.0660021636454734,-4.300478320666883,-0.5,0.0,-0.0
1730305490.3678343,-0.025627963198633807,0.03600216364547337,-4.381070916580684,-0.5,0.0,0.03333333333333333
1730305490.3777337,-0.05462796319863372,0.11500216364547333,-4.422651875420149,-0.5333333333333333,0.0,0.03333333333333333
1730305490.396021,-0.13362796319863435,0.14400216364547336,-4.4021818685130825,-0.5,0.0,0.03333333333333333
1730305490.4238012,-0.19162796319863418,0.13400216364547335,-4.452390811951096,-0.5,0.0,0.03333333333333333
1730305490.4410994,-0.3196279631986343,0.0850021636454733,-4.251620797474404,-0.5,0.0,-0.0
1730305490.45755,-0.41762796319863327,-0.0029978363545266618,-4.157852939503922,-0.4666666666666667,0.03333333333333333,-0.0
1730305490.4861007,-0.3296279631986341,0.020688992570130682,-4.2960006034222875,-0.4666666666666667,0.06666666666666667,-0.06666666666666667
1730305490.5028129,-0.25062796319863345,-0.057311007429869276,-4.415700534594324,-0.5,0.1,-0.13333333333333333
1730305490.5401156,-0.10557033554315964,-0.10631100742986932,-4.679447745040316,-0.5,0.1,-0.1
1730305490.5502837,0.0014296644568414507,-0.03831100742986926,-4.7293337362876375,-0.5333333333333333,0.1,-0.06666666666666667
1730305490.5565825,0.0014296644568414507,0.1915842692567209,-4.803825645827306,-0.5,0.06666666666666667,-0.0
1730305490.576717,-0.11557033554315943,0.289584269256721,-4.73440121952817,-0.5,0.06666666666666667,0.06666666666666667
1730305490.6069803,-0.29257033554315903,0.3385842692567209,-4.679492193860582,-0.4666666666666667,0.06666666666666667,0.06666666666666667
1730305490.6215668,-0.31157033554315916,0.27058426925672097,-4.5319264605765195,-0.4666666666666667,0.1,-0.0
1730305490.6528418,-0.23357033554315976,0.171584269256721,-4.651111408114879,-0.4666666666666667,0.06666666666666667,-0.0
1730305490.666924,-0.1845703355431585,0.16258426925672098,-4.772618774120012,-0.4666666666666667,0.1,-0.0
1730305490.6813745,-0.17360107476752518,0.2015842692567209,-5.065272590852915,-0.43333333333333335,0.1,0.03333333333333333
1730305490.692352,-0.3116010747675251,0.171584269256721,-5.120729760898868,-0.4,0.1,0.03333333333333333
1730305490.723161,-0.42860107476752596,0.054584269256720885,-4.96087828061415,-0.36666666666666664,0.1,0.06666666666666667
1730305490.741154,-0.43860107476752574,-0.10241573074327909,-4.985392714034745,-0.36666666666666664,0.13333333333333333,0.06666666666666667
1730305490.7861388,-0.15460107476752505,-0.2984157307432791,-4.914956259522321,-0.36666666666666664,0.16666666666666666,-0.0
1730305490.7903721,0.22839892523247407,-0.4064157307432791,-5.124438921716846,-0.43333333333333335,0.16666666666666666,-0.03333333333333333
1730305490.8005657,0.4243989252324738,-0.35741573074327904,-5.244072565804743,-0.4666666666666667,0.13333333333333333,0.03333333333333333
1730305490.8145204,0.39826764410424076,-0.17141573074327904,-5.371099196004778,-0.5,0.1,0.13333333333333333
1730305490.8559783,0.17326764410423934,0.24058426925672094,-5.328430772316375,-0.4666666666666667,0.06666666666666667,0.2
1730305490.8656194,0.09426764410424049,0.36858426925672094,-5.307428909042409,-0.43333333333333335,0.06666666666666667,0.16666666666666666
1730305490.8733752,0.03526764410423944,0.35858426925672093,-5.267049323811415,-0.4,0.06666666666666667,0.06666666666666667
1730305490.9068763,-0.05273235589575975,0.289584269256721,-5.177353981271818,-0.4,0.1,0.03333333333333333
1730305490.9227424,0.016267644104241086,0.1815842692567209,-5.1428270849845195,-0.36666666666666664,0.1,-0.0
1730305490.9358149,-0.05273235589575975,0.10358426925672093,-5.256205035788744,-0.36666666666666664,0.1,0.03333333333333333
1730305490.9613621,-0.1607323558957603,0.14258426925672096,-5.188627200144319,-0.36666666666666664,0.1,0.06666666666666667
1730305490.9890604,-0.2287323558957599,0.1915842692567209,-5.070951478498364,-0.36666666666666664,0.1,-0.0
1730305491.0065236,-0.1507323558957605,0.12258426925672095,-5.205795525790027,-0.3333333333333333,0.1,-0.0
1730305491.0275226,-0.17073235589576008,0.13258426925672095,-5.230222779988496,-0.3333333333333333,0.1,0.03333333333333333
1730305491.0714195,-0.2319772371549078,0.1915842692567209,-5.161743189842859,-0.3,0.1,0.1
1730305491.0782974,-0.29097723715490886,0.37758426925672095,-5.114302404082035,-0.3333333333333333,0.13333333333333333,0.06666666666666667
1730305491.1018822,-0.2519772371549074,0.49558426925672083,-5.100971891076696,-0.3,0.13333333333333333,0.06666666666666667
1730305491.109689,-0.1249772371549085,0.49558426925672083,-5.221829241578654,-0.26666666666666666,0.16666666666666666,0.06666666666666667
1730305491.109689,0.023022762845091194,0.4265842692567209,-5.185851027911188,-0.23333333333333334,0.16666666666666666,0.03333333333333333
1730305491.1459558,0.15002276284509186,0.4365842692567209,-5.1539520466984445,-0.23333333333333334,0.16666666666666666,0.06666666666666667
1730305491.1627102,0.32702276284509146,0.4665842692567209,-5.23964334128888,-0.2,0.13333333333333333,0.06666666666666667
1730305491.1915262,0.41502276284509243,0.4565842692567209,-5.311308921336037,-0.16666666666666666,0.13333333333333333,0.03333333333333333
1730305491.2089307,0.43365034400262026,0.38758426925672096,-5.303192853211534,-0.13333333333333333,0.1,-0.0
1730305491.2379804,0.39465034400262056,0.3485842692567209,-5.330664496955759,-0.13333333333333333,0.1,-0.0
1730305491.251946,0.40465034400262034,0.3095842692567209,-5.404748995960181,-0.1,0.1,0.03333333333333333
1730305491.2669172,0.44365034400262005,0.289584269256721,-5.395471902812023,-0.1,0.06666666666666667,0.03333333333333333
1730305491.2971225,0.4246503440026199,0.3385842692567209,-5.342425201018816,-0.1,0.06666666666666667,-0.0
1730305491.3121896,0.4636503440026214,0.3385842692567209,-5.4064955013726514,-0.03333333333333333,0.06666666666666667,0.03333333333333333
1730305491.3262734,0.4736503440026212,0.289584269256721,-5.480436687287392,-0.03333333333333333,0.03333333333333333,-0.0
1730305491.3425605,0.4246503440026199,0.3195842692567209,-5.416571774500266,-0.03333333333333333,0.03333333333333333,0.03333333333333333
1730305491.3602858,0.41465034400262013,0.3195842692567209,-5.475738108774943,0.0,0.03333333333333333,-0.0
1730305491.413566,0.4636503440026214,0.25058426925672095,-5.519502939726103,0.0,0.03333333333333333,-0.06666666666666667
1730305491.4196277,0.5126503440026209,0.13258426925672095,-5.565699563809552,0.0,0.0,-0.06666666666666667
1730305491.4359877,0.5616503440026204,-0.004415730743279056,-5.499098300959139,0.03333333333333333,0.0,-0.0
1730305491.445765,0.5516503440026206,-0.053415730743279044,-5.520959441605666,0.03333333333333333,0.0,-0.0
1730305491.462844,0.58165034400262,-0.07341573074327906,-5.62424969015391,0.0,0.0,-0.0
1730305491.472908,0.6306503440026212,-0.09241573074327908,-5.593450328959868,0.03333333333333333,-0.03333333333333333,-0.0
1730305491.520215,0.6596503440026211,-0.09241573074327908,-5.55074216763216,0.0,-0.06666666666666667,-0.03333333333333333
1730305491.5445917,0.7966503440026216,-0.16141573074327908,-5.4993220501813385,0.03333333333333333,-0.1,-0.13333333333333333
1730305491.552836,0.7870227628450923,-0.31841573074327906,-5.490968622835302,0.06666666666666667,-0.1,-0.03333333333333333
1730305491.561195,0.778022762845092,-0.4064157307432791,-5.474849736497463,0.06666666666666667,-0.13333333333333333,-0.03333333333333333
1730305491.5794659,0.8460227628450916,-0.44541573074327906,-5.421650213230331,0.03333333333333333,-0.16666666666666666,-0.1
1730305491.5947623,0.9250227628450922,-0.5524157307432791,-5.31247389217768,0.03333333333333333,-0.2,-0.06666666666666667
1730305491.624204,0.8402676441042409,-0.5334157307432791,-5.248990076154758,0.0,-0.23333333333333334,-0.0
1730305491.6401236,0.8102676441042398,-0.4064157307432791,-5.20172656619097,0.0,-0.23333333333333334,-0.06666666666666667
1730305491.6560738,0.8982676441042408,-0.32841573074327907,-5.144522393080688,0.0,-0.26666666666666666,-0.1
1730305491.6965015,0.8953989252324739,-0.347415730743279,-5.208048604985285,0.0,-0.3,-0.06666666666666667
1730305491.704854,0.8263989252324748,-0.13736406265153453,-5.041063601312539,0.0,-0.3333333333333333,-0.13333333333333333
1730305491.7386348,0.7483989252324736,-0.19636406265153453,-4.985572189756956,0.0,-0.3333333333333333,-0.2
1730305491.7386348,0.6684296644568413,-0.2743640626515345,-4.7730211749117055,0.03333333333333333,-0.36666666666666664,-0.13333333333333333
1730305491.7868447,0.3154296644568415,-0.25536406265153455,-4.66335058677312,0.0,-0.4,-0.13333333333333333
1730305491.7909527,-0.01562796319863402,-0.2063640626515345,-4.615155821938692,0.0,-0.4,-0.16666666666666666
1730305491.8065844,-0.358627963198634,-0.21636406265153452,-4.425212735520835,0.03333333333333333,-0.4,-0.13333333333333333
1730305491.8192244,-0.5797626696215836,-0.08420810714975127,-4.293312166222089,0.03333333333333333,-0.36666666666666664,-0.16666666666666666
1730305491.834854,-0.4227626696215836,-0.20020810714975126,-3.9646328569780636,0.03333333333333333,-0.3333333333333333,-0.23333333333333334
1730305491.8722765,-0.2479640570497601,-0.3772081071497513,-3.8246885681433502,0.0,-0.3333333333333333,-0.26666666666666666
1730305491.8722765,-0.2479640570497601,-0.4362081071497513,-3.707371671760064,0.0,-0.3333333333333333,-0.16666666666666666
1730305491.8949156,-0.3542226212383017,-0.206,-3.310997853252992,0.0,-0.3333333333333333,-0.13333333333333333
1730305491.923158,-0.315222621238302,-0.255,-3.323994386597871,0.0,-0.3333333333333333,-0.1
1730305491.9413695,-0.29522262123830245,-0.245,-3.1625377395772114,0.0,-0.3333333333333333,-0.03333333333333333
1730305491.9566958,-0.2715297543548054,-0.196,-2.998657524491289,0.0,-0.3,-0.0
1730305491.9942775,-0.23252975435480572,-0.186,-2.618210251481381,0.0,-0.3,-0.06666666666666667
1730305492.002837,-0.05887774760136999,-0.353,-2.5137419171530198,0.0,-0.26666666666666666,-0.13333333333333333
1730305492.0150034,0.14712225239862953,-0.461,-2.5070726899627864,0.0,-0.3,-0.1
1730305492.0383153,0.25512225239863007,-0.422,-2.417701913628022,-0.03333333333333333,-0.3,-0.03333333333333333
1730305492.0756054,0.4027402064372385,-0.402,-2.3031964217489316,0.0,-0.3333333333333333,-0.0
1730305492.0756054,0.4807402064372379,-0.275,-2.3707943924407915,-0.03333333333333333,-0.3333333333333333,-0.0
1730305492.1063266,0.2783300117199765,-0.039,-2.3160169260962284,-0.03333333333333333,-0.36666666666666664,-0.0
1730305492.1212897,0.2883300117199763,0.0,-2.0839481744533446,0.0,-0.36666666666666664,-0.03333333333333333
1730305492.136787,0.2748966669511237,-0.157,-2.0074018322832945,0.0,-0.36666666666666664,-0.1
1730305492.1659687,0.16689666695112315,-0.255,-1.8443384233978617,0.0,-0.36666666666666664,-0.1
1730305492.1803057,0.16644426405762935,-0.314,-1.7071868028073696,0.0,-0.36666666666666664,-0.06666666666666667
1730305492.195859,0.1754442640576297,-0.451,-1.4356219023951826,0.0,-0.4,-0.1
1730305492.2257082,0.11644426405763042,-0.461,-1.186094084662646,0.0,-0.36666666666666664,-0.1
1730305492.2407572,0.1489759869426699,-0.461,-1.1263331868942796,0.0,-0.36666666666666664,-0.1
1730305492.2554328,0.25697598694267043,-0.36779189285024877,-0.9271212046288435,0.0,-0.4,-0.1
1730305492.2841778,0.2524941105158014,-0.33879189285024874,-0.7714700562946699,-0.03333333333333333,-0.4,-0.03333333333333333
1730305492.2993221,0.18349411051580233,-0.19179189285024872,-0.7545425526868408,-0.06666666666666667,-0.43333333333333335,-0.0
1730305492.3306718,0.06400000000000006,-0.03479189285024872,-0.3507934310537588,-0.03333333333333333,-0.43333333333333335,-0.03333333333333333
1730305492.3454325,-0.09299999999999997,0.09320810714975127,-0.03818119161765284,-0.03333333333333333,-0.4,-0.03333333333333333
1730305492.3564155,-0.002505889484199386,0.09320810714975127,-6.006892549817768e-16,-0.03333333333333333,-0.36666666666666664,-0.13333333333333333
1730305492.373325,0.026494110515802305,0.034208107149751255,-6.006892549817768e-16,0.0,-0.36666666666666664,-0.2
1730305492.4062304,0.0999759869426704,-0.05479189285024874,-0.09553149497032376,0.0,-0.36666666666666664,-0.2
1730305492.4201858,0.22697598694267107,-0.21079189285024874,0.0020044307745844675,0.0,-0.36666666666666664,-0.13333333333333333
1730305492.4353168,0.19544426405763105,-0.34879189285024875,0.005661852969387371,-0.03333333333333333,-0.4,-0.16666666666666666
1730305492.4646723,0.1264442640576302,-0.08863593734846548,0.005425021613585823,-0.06666666666666667,-0.4,-0.13333333333333333
1730305492.4958243,0.03889666695112304,0.028364062651534516,0.0025538154349052933,-0.03333333333333333,-0.4,-0.0
1730305492.5257523,0.05889666695112439,0.15636406265153452,0.004115674201356168,-0.03333333333333333,-0.36666666666666664,-0.06666666666666667
1730305492.5282328,0.22933001171997702,0.1753640626515345,0.01460355113427303,0.0,-0.3333333333333333,-0.2
1730305492.5567415,0.3953300117199756,0.048364062651534534,0.028449772208725577,0.0,-0.3333333333333333,-0.23333333333333334
1730305492.5667787,0.4417402064372382,-0.14763593734846547,0.035754825141936175,0.03333333333333333,-0.36666666666666664,-0.2
1730305492.5859113,0.4311222523986302,-0.13358426925672096,0.03408644521737425,0.03333333333333333,-0.4,-0.2
1730305492.602126,0.38212225239863074,-0.27158426925672097,0.03535186936528578,0.03333333333333333,-0.43333333333333335,-0.16666666666666666
1730305492.6114893,0.2674702456451943,-0.26158426925672096,0.029327339333935276,0.03333333333333333,-0.43333333333333335,-0.03333333333333333
1730305492.6399248,0.24847024564519415,-0.172584269256721,0.025876224546033333,0.0,-0.43333333333333335,-0.06666666666666667
1730305492.6728704,0.22377737876169768,-0.1925842692567209,0.027748889085044137,0.03333333333333333,-0.4666666666666667,-0.1
1730305492.6728704,0.1747773787616982,-0.021688992570130683,0.023228262518773857,0.03333333333333333,-0.4666666666666667,-0.06666666666666667
1730305492.7057629,0.18403594295024028,-0.03168899257013069,0.023592944215838685,0.0,-0.4666666666666667,-0.03333333333333333
1730305492.720626,0.13503594295023902,-0.011688992570130674,0.023260721155719644,0.03333333333333333,-0.5,-0.06666666666666667
1730305492.736577,0.019237330378414796,0.03731100742986926,0.001735910042813149,0.0,-0.4666666666666667,-0.06666666666666667
1730305492.7663531,-0.025627963198633807,0.12531100742986923,-0.011823012903395824,0.0,-0.4666666666666667,-0.1
1730305492.779814,-0.1426279631986347,0.13531100742986923,-0.03139344438149427,0.03333333333333333,-0.43333333333333335,-0.13333333333333333
1730305492.7917755,-0.047570335543159814,-0.021688992570130683,-0.019276318124183733,0.03333333333333333,-0.43333333333333335,-0.16666666666666666
1730305492.82309,0.021429664456841024,-0.23768899257013076,0.0028123941511768447,0.06666666666666667,-0.4666666666666667,-0.16666666666666666
1730305492.8403184,-0.0756010747675262,-0.37468899257013066,-0.016233762176305788,0.1,-0.4666666666666667,-0.0
1730305492.8569462,-0.13460107476752547,-0.23768899257013076,-0.022637282546709603,0.03333333333333333,-0.4666666666666667,0.16666666666666666
1730305492.885632,-0.013732355895760051,0.01731100742986924,-0.004398259609665889,0.0,-0.43333333333333335,-0.0
1730305492.9010737,0.11065034400262341,0.1879978363545266,0.0027936717133401068,0.03333333333333333,-0.43333333333333335,-0.03333333333333333
1730305492.910509,0.05165034400262236,0.2759978363545267,-0.006195620735913732,0.0,-0.43333333333333335,-0.0
1730305492.94208,0.07413557514454361,0.3939978363545266,-0.016366473619418898,0.03333333333333333,-0.4,-0.06666666666666667
1730305492.9566574,-0.0928644248554562,0.43299783635452666,-0.05750781602798272,0.03333333333333333,-0.4,-0.1
1730305492.9738522,-0.1075372266292991,0.42399783635452665,-0.06984422964724946,0.1,-0.4,-0.1
1730305493.0053163,-0.11753722662929889,0.20799783635452662,-0.062077047815662034,0.16666666666666666,-0.36666666666666664,-0.1
1730305493.022316,-0.050384609909761124,-0.10600216364547332,-0.04734262422167346,0.16666666666666666,-0.36666666666666664,-0.16666666666666666
1730305493.0357459,-0.11838460990976074,-0.06357577534431935,-0.050174398895607375,0.16666666666666666,-0.36666666666666664,-0.13333333333333333
1730305493.0619457,0.0395760160624512,-0.17057577534431934,-0.01529121171474701,0.13333333333333333,-0.3333333333333333,-0.06666666666666667
1730305493.0784006,0.1275760160624504,-0.32757577534431936,0.01669685189737624,0.13333333333333333,-0.3333333333333333,-0.06666666666666667
1730305493.094364,0.24557601606245072,-0.3675757753443194,0.05521162364412868,0.1,-0.36666666666666664,-0.0
1730305493.1229289,0.24932638669981522,-0.18057577534431934,0.04385675366902442,0.0,-0.36666666666666664,0.06666666666666667
1730305493.1416152,0.11132638669981532,0.18242422465568064,0.01695205980704717,0.0,-0.36666666666666664,0.03333333333333333
1730305493.162147,0.2168473876315602,0.21142422465568067,0.02396679968521065,0.03333333333333333,-0.3333333333333333,-0.0
1730305493.1850529,0.18684738763156084,0.22142422465568057,0.0201842191973145,0.06666666666666667,-0.3333333333333333,-0.0
1730305493.2013795,0.19684738763156062,0.18242422465568064,0.02339355483698924,0.06666666666666667,-0.3333333333333333,-0.0
1730305493.215174,0.3921190605260847,-0.04700216364547338,0.04907284285061131,0.1,-0.3333333333333333,-0.0
1730305493.239365,0.15711906052608526,-0.07700216364547341,0.0021105815579152143,0.1,-0.4,0.13333333333333333
1730305493.2966154,-0.2248809394739144,0.040997836354526696,-0.09910976189090093,0.1,-0.4,0.23333333333333334
1730305493.3003922,-0.33288093947391495,0.1979978363545266,-0.12310341952155479,0.1,-0.36666666666666664,0.2
1730305493.3161488,-0.14487939082953538,0.22699783635452664,-0.06018572359421537,0.1,-0.3,0.03333333333333333
1730305493.3190498,-0.0858793908295361,0.1779978363545266,-0.03118866695491551,0.1,-0.26666666666666666,-0.06666666666666667
1730305493.337302,0.39983040580517226,0.001997836354526661,0.1000258857904246,0.1,-0.23333333333333334,-0.13333333333333333
1730305493.3546863,0.5642259977121107,0.08442422465568067,0.13177674029733666,0.1,-0.26666666666666666,-0.1
1730305493.377098,0.5352259977121108,0.11342422465568058,0.1314202191402214,0.1,-0.3,-0.06666666666666667
1730305493.394837,0.4372259977121118,0.11342422465568058,0.1130655457649894,0.1,-0.3,-0.06666666666666667
1730305493.423406,0.25128411405392725,0.08442422465568067,0.040469446066911274,0.13333333333333333,-0.3333333333333333,-0.06666666666666667
1730305493.439932,0.12428411405392659,0.035424224655680625,0.006641617752469742,0.1,-0.3,-0.06666666666666667
1730305493.4566603,0.1142841140539268,-0.07257577534431947,0.015495428315466242,0.1,-0.26666666666666666,-0.13333333333333333
1730305493.494002,0.03898067296252705,-0.10257577534431928,-0.03553170050372412,0.06666666666666667,-0.26666666666666666,-0.16666666666666666
1730305493.5025635,-0.10801932703747319,-0.10257577534431928,-0.08575645624376804,0.06666666666666667,-0.23333333333333334,-0.16666666666666666
1730305493.514795,-0.06901932703747349,0.07753825880449661,-0.07222705171749766,0.06666666666666667,-0.2,-0.16666666666666666
1730305493.5422857,-0.003709211125341838,-0.0004617411955032402,-0.08129307931255969,0.06666666666666667,-0.2,-0.16666666666666666
1730305493.556404,-0.04370921112534276,-0.11846174119550335,-0.09241656987992553,0.06666666666666667,-0.2,-0.16666666666666666
1730305493.5696847,-0.05370921112534255,-0.1774617411955033,-0.07944696418690711,0.06666666666666667,-0.2,-0.13333333333333333
1730305493.604987,-0.08270921112534246,-0.1974617411955033,-0.08606168940546777,0.03333333333333333,-0.2,-0.1
1730305493.6210673,-0.11381121988772236,-0.2064617411955032,-0.12687756457428545,0.03333333333333333,-0.23333333333333334,-0.06666666666666667
1730305493.634835,-0.27981121988772273,-0.26546174119550336,-0.16721313647203928,0.06666666666666667,-0.2,-0.03333333333333333
1730305493.6588488,-0.3588112198877216,-0.17471187958175793,-0.19530837168757742,0.03333333333333333,-0.16666666666666666,-0.06666666666666667
1730305493.6778827,-0.5058112198877227,-0.15471187958175792,-0.25824645470980645,0.03333333333333333,-0.13333333333333333,-0.1
1730305493.6938803,-0.4653518232945393,-0.10571187958175798,-0.2742461354823158,0.0,-0.1,-0.1
1730305493.7363305,-0.3773518232945392,-0.1447118795817579,-0.2290676788278665,0.0,-0.06666666666666667,-0.16666666666666666
1730305493.745719,-0.22035182329453917,-0.2917118795817579,-0.16810223830874538,0.0,-0.03333333333333333,-0.16666666666666666
1730305493.7552464,-0.1903518232945398,-0.3607118795817579,-0.1255729701609054,0.0,-0.06666666666666667,-0.13333333333333333
1730305493.7856686,-0.07335182329453893,-0.3897118795817578,-0.05704586082706342,-0.06666666666666667,-0.06666666666666667,-0.13333333333333333
1730305493.7968047,-0.024351823294539443,-0.43871187958175795,-0.05016156641109326,-0.03333333333333333,-0.06666666666666667,-0.03333333333333333
1730305493.839686,0.024648176705460045,-0.3707118795817579,-0.037995043277893714,-0.1,-0.03333333333333333,-0.0
1730305493.839686,0.03464817670545983,-0.23271187958175799,-0.020227420855648326,-0.13333333333333333,-0.03333333333333333,-0.03333333333333333
1730305493.8895514,0.048641728455390165,-0.125711879581758,-0.07335431036344797,-0.13333333333333333,-0.03333333333333333,-0.0
1730305493.8895514,-0.059358271544610375,0.11028812041824221,-0.13044650978180794,-0.16666666666666666,0.0,-0.0
1730305493.9037125,0.0676417284553903,0.11028812041824221,-0.0796903098405446,-0.13333333333333333,0.0,-0.0
1730305493.9348583,0.12664172845538957,0.012288120418242121,-0.0268234425165641,-0.13333333333333333,0.0,-0.16666666666666666
1730305493.9398353,0.14664172845539092,0.002288120418242112,-0.010207297086291867,-0.16666666666666666,0.0,-0.2
1730305493.9901996,0.17564172845539083,-0.04671187958175782,0.007849186804777197,-0.16666666666666666,0.03333333333333333,-0.16666666666666666
1730305494.0013547,0.1956417284553904,-0.23271187958175799,0.018237610739152643,-0.1,0.03333333333333333,-0.16666666666666666
1730305494.006854,0.2446417284553899,-0.2917118795817579,0.05335923102846962,-0.2,0.03333333333333333,-0.2
1730305494.0428286,0.31964817670546,-0.2827118795817578,0.08720869067775361,-0.23333333333333334,0.06666666666666667,-0.2
1730305494.0493858,0.35864817670546145,-0.23271187958175799,0.09457770591299663,-0.23333333333333334,0.03333333333333333,-0.13333333333333333
